Wavelength	Irradiance
(nm)	(mW/cm2/nm)

294.396000	0.000000
294.577000	0.000000
294.757000	0.000000
294.938000	0.000000
295.118000	0.000000
295.299000	0.000000
295.479000	-0.000000
295.660000	-0.000000
295.840000	-0.000000
296.021000	0.000000
296.202000	-0.000000
296.382000	-0.000000
296.563000	-0.000000
296.743000	-0.000000
296.924000	0.000000
297.104000	-0.000000
297.285000	-0.000000
297.465000	-0.000000
297.646000	-0.000000
297.826000	0.000000
298.007000	0.000000
298.187000	0.000000
298.368000	-0.000000
298.548000	0.000000
298.729000	0.000000
298.909000	-0.000000
299.090000	-0.000000
299.270000	-0.000000
299.451000	-0.000000
299.631000	-0.000000
299.812000	-0.000000
299.992000	0.000000
300.173000	0.000000
300.353000	-0.000000
300.534000	0.000000
300.714000	0.000000
300.895000	0.000000
301.075000	0.000000
301.256000	0.000000
301.436000	-0.000000
301.617000	-0.000000
301.797000	-0.000000
301.978000	0.000000
302.159000	0.000000
302.339000	0.000000
302.520000	-0.000000
302.700000	-0.000000
302.881000	0.000000
303.061000	0.000000
303.242000	0.000000
303.422000	0.000000
303.603000	0.000000
303.783000	-0.000000
303.964000	0.000000
304.144000	-0.000000
304.325000	-0.000000
304.505000	0.000000
304.686000	0.000000
304.866000	0.000000
305.047000	0.000000
305.227000	-0.000000
305.408000	-0.000000
305.588000	-0.000000
305.769000	-0.000000
305.949000	-0.000000
306.130000	-0.000000
306.310000	-0.000000
306.491000	-0.000000
306.671000	0.000000
306.852000	-0.000000
307.032000	-0.000000
307.213000	-0.000000
307.393000	-0.000000
307.574000	0.000000
307.755000	0.000000
307.935000	0.000000
308.116000	-0.000000
308.296000	-0.000000
308.477000	0.000000
308.657000	0.000000
308.838000	0.000000
309.018000	0.000000
309.199000	-0.000000
309.379000	-0.000000
309.560000	0.000000
309.740000	0.000000
309.921000	0.000000
310.101000	0.000000
310.282000	-0.000000
310.462000	-0.000000
310.643000	-0.000000
310.823000	-0.000000
311.004000	-0.000000
311.184000	-0.000000
311.365000	0.000000
311.545000	0.000000
311.726000	0.000000
311.906000	0.000000
312.087000	0.000000
312.267000	-0.000000
312.448000	-0.000000
312.628000	-0.000000
312.809000	-0.000000
312.989000	-0.000000
313.170000	-0.000000
313.344000	0.000000
313.518000	-0.000000
313.691000	-0.000000
313.865000	-0.000000
314.039000	-0.000000
314.213000	-0.000000
314.387000	-0.000000
314.560000	-0.000000
314.734000	-0.000000
314.908000	-0.000000
315.082000	-0.000000
315.255000	0.000000
315.429000	0.000000
315.603000	0.000000
315.777000	-0.000000
315.951000	0.000000
316.124000	-0.000000
316.298000	-0.000000
316.472000	-0.000000
316.646000	-0.000000
316.820000	-0.000000
316.993000	0.000000
317.167000	-0.000000
317.341000	-0.000000
317.515000	-0.000000
317.688000	-0.000000
317.862000	-0.000000
318.036000	-0.000000
318.210000	-0.000000
318.384000	-0.000000
318.557000	-0.000000
318.731000	-0.000000
318.905000	0.000000
319.079000	0.000000
319.253000	0.000000
319.426000	0.000000
319.600000	0.000000
319.774000	-0.000000
319.948000	-0.000000
320.122000	0.000000
320.295000	0.000000
320.469000	-0.000000
320.643000	-0.000000
320.817000	-0.000000
320.990000	-0.000000
321.164000	-0.000000
321.338000	-0.000000
321.512000	-0.000000
321.686000	-0.000000
321.859000	-0.000000
322.033000	0.000000
322.207000	0.000000
322.381000	-0.000000
322.555000	0.000000
322.728000	0.000000
322.902000	-0.000000
323.076000	-0.000000
323.250000	-0.000000
323.423000	-0.000000
323.597000	-0.000000
323.771000	-0.000000
323.945000	-0.000000
324.119000	-0.000000
324.292000	0.000000
324.466000	0.000000
324.640000	0.000000
324.814000	0.000000
324.988000	-0.000000
325.161000	0.000000
325.335000	-0.000000
325.509000	-0.000000
325.683000	0.000000
325.856000	-0.000000
326.030000	-0.000000
326.204000	-0.000000
326.378000	0.000000
326.552000	-0.000000
326.725000	-0.000000
326.899000	-0.000000
327.073000	-0.000000
327.247000	-0.000000
327.421000	0.000000
327.594000	0.000000
327.768000	-0.000000
327.942000	0.000000
328.116000	0.000000
328.289000	0.000000
328.463000	-0.000000
328.637000	0.000000
328.811000	-0.000000
328.985000	-0.000000
329.158000	-0.000000
329.332000	-0.000000
329.506000	0.000000
329.680000	-0.000000
329.854000	-0.000000
330.027000	-0.000000
330.201000	0.000000
330.375000	0.000000
330.549000	0.000000
330.723000	0.000000
330.896000	-0.000000
331.070000	-0.000000
331.244000	-0.000000
331.418000	-0.000000
331.591000	0.000000
331.765000	-0.000000
331.939000	0.000000
332.113000	0.000000
332.287000	0.000000
332.460000	0.000000
332.634000	0.000000
332.808000	-0.000000
332.982000	-0.000000
333.156000	-0.000000
333.329000	-0.000000
333.503000	-0.000000
333.677000	-0.000000
333.851000	-0.000000
334.024000	0.000000
334.198000	-0.000000
334.372000	-0.000000
334.546000	-0.000000
334.720000	-0.000000
334.893000	-0.000000
335.067000	-0.000000
335.241000	0.000000
335.415000	0.000000
335.589000	-0.000000
335.762000	-0.000000
335.936000	-0.000000
336.110000	-0.000000
336.284000	-0.000000
336.458000	0.000000
336.631000	-0.000000
336.805000	-0.000000
336.979000	-0.000000
337.153000	-0.000000
337.326000	-0.000000
337.500000	-0.000000
337.674000	-0.000000
337.848000	-0.000000
338.022000	0.000000
338.195000	-0.000000
338.369000	-0.000000
338.543000	-0.000000
338.717000	-0.000000
338.891000	0.000000
339.064000	0.000000
339.238000	-0.000000
339.412000	-0.000000
339.586000	-0.000000
339.759000	-0.000000
339.933000	-0.000000
340.107000	0.000000
340.281000	-0.000000
340.455000	-0.000000
340.628000	-0.000000
340.802000	-0.000000
340.976000	0.000000
341.150000	-0.000000
341.324000	-0.000000
341.497000	-0.000000
341.671000	-0.000000
341.845000	-0.000000
342.019000	-0.000000
342.192000	0.000000
342.366000	-0.000000
342.540000	-0.000000
342.714000	-0.000000
342.888000	-0.000000
343.061000	0.000000
343.235000	-0.000000
343.409000	-0.000000
343.583000	-0.000000
343.757000	-0.000000
343.930000	-0.000000
344.104000	-0.000000
344.278000	0.000000
344.452000	0.000000
344.626000	-0.000000
344.799000	-0.000000
344.973000	-0.000000
345.147000	-0.000000
345.321000	-0.000000
345.494000	-0.000000
345.668000	0.000000
345.842000	0.000000
346.016000	-0.000000
346.190000	0.000000
346.363000	0.000000
346.537000	-0.000000
346.711000	-0.000000
346.885000	-0.000000
347.059000	-0.000000
347.232000	0.000000
347.406000	0.000000
347.580000	-0.000000
347.754000	-0.000000
347.927000	-0.000000
348.101000	0.000000
348.275000	-0.000000
348.449000	-0.000000
348.623000	-0.000000
348.796000	0.000000
348.970000	0.000000
349.144000	0.000000
349.318000	-0.000000
349.492000	0.000000
349.665000	-0.000000
349.839000	-0.000000
350.013000	-0.000000
350.187000	-0.000000
350.361000	-0.000000
350.534000	0.000000
350.708000	0.000000
350.882000	0.000000
351.056000	0.000000
351.229000	-0.000000
351.403000	-0.000000
351.577000	-0.000000
351.751000	-0.000000
351.925000	-0.000000
352.098000	-0.000000
352.272000	-0.000000
352.446000	-0.000000
352.620000	-0.000000
352.794000	-0.000000
352.967000	-0.000000
353.141000	0.000000
353.315000	0.000000
353.489000	-0.000000
353.662000	-0.000000
353.836000	-0.000000
354.010000	-0.000000
354.184000	0.000000
354.358000	-0.000000
354.531000	-0.000000
354.705000	-0.000000
354.879000	-0.000000
355.053000	-0.000000
355.227000	0.000000
355.400000	-0.000000
355.574000	0.000000
355.748000	0.000000
355.922000	-0.000000
356.095000	-0.000000
356.269000	-0.000000
356.443000	-0.000000
356.617000	-0.000000
356.791000	-0.000000
356.964000	-0.000000
357.138000	-0.000000
357.312000	-0.000000
357.486000	-0.000000
357.660000	0.000000
357.833000	0.000000
358.007000	-0.000000
358.181000	-0.000000
358.355000	-0.000000
358.529000	-0.000000
358.702000	-0.000000
358.876000	-0.000000
359.050000	-0.000000
359.224000	-0.000000
359.397000	0.000000
359.571000	-0.000000
359.745000	-0.000000
359.919000	-0.000000
360.093000	-0.049250
360.266000	0.116455
360.440000	0.190308
360.614000	0.155628
360.788000	0.097847
360.962000	-0.102671
361.135000	0.079922
361.309000	-0.112216
361.483000	-0.328316
361.657000	-0.239747
361.830000	-0.209237
362.004000	0.008816
362.178000	-0.363113
362.352000	-0.337946
362.526000	-0.090029
362.699000	0.008951
362.873000	-0.253469
363.047000	-0.292017
363.221000	-0.323775
363.395000	-0.200570
363.568000	-0.263905
363.742000	-0.164193
363.916000	-0.177885
364.090000	-0.293579
364.263000	-0.264022
364.437000	-0.369887
364.611000	-0.005507
364.785000	-0.000509
364.959000	-0.199384
365.132000	-0.212485
365.306000	-0.288765
365.480000	-0.160947
365.656000	-0.235731
365.831000	-0.239501
366.007000	-0.132614
366.183000	-0.062770
366.358000	-0.179668
366.534000	-0.140254
366.710000	-0.268613
366.886000	-0.120695
367.061000	-0.005720
367.237000	0.061430
367.413000	-0.010858
367.588000	-0.306989
367.764000	-0.246838
367.940000	-0.177744
368.115000	-0.262423
368.291000	-0.304776
368.467000	-0.109553
368.643000	0.172365
368.818000	-0.122312
368.994000	-0.345333
369.170000	-0.267561
369.345000	-0.131508
369.521000	-0.201295
369.697000	-0.104018
369.872000	-0.188744
370.048000	-0.265223
370.224000	-0.199061
370.399000	-0.361114
370.575000	-0.324561
370.751000	-0.426685
370.927000	-0.328449
371.102000	-0.236216
371.278000	-0.316836
371.454000	-0.220512
371.629000	0.026543
371.805000	-0.005953
371.981000	0.158255
372.156000	0.255024
372.332000	0.036726
372.508000	0.059032
372.683000	0.096366
372.859000	-0.043917
373.035000	-0.066309
373.211000	0.334880
373.386000	0.109169
373.562000	-0.394070
373.738000	-0.468447
373.913000	-0.609574
374.089000	-0.436752
374.265000	0.010402
374.440000	-0.006076
374.616000	0.038029
374.792000	-0.091686
374.968000	0.214244
375.143000	-0.070809
375.319000	-0.274413
375.495000	-0.313909
375.670000	-0.264456
375.846000	-0.054863
376.022000	-0.137770
376.197000	-0.027763
376.373000	-0.262836
376.549000	-0.485992
376.724000	-0.556633
376.900000	-0.256123
377.076000	-0.096704
377.252000	0.182787
377.427000	0.268271
377.603000	-0.155259
377.779000	-0.112618
377.954000	-0.247567
378.130000	-0.199786
378.306000	-0.117011
378.481000	-0.105985
378.657000	-0.215611
378.833000	-0.272858
379.009000	-0.043018
379.184000	0.052339
379.360000	0.057121
379.536000	0.047027
379.711000	-0.156318
379.887000	-0.175191
380.063000	-0.215225
380.238000	-0.280020
380.414000	0.025693
380.590000	-0.238769
380.765000	-0.333031
380.941000	-0.037054
381.117000	-0.036818
381.293000	-0.114334
381.468000	-0.123292
381.644000	-0.125131
381.820000	-0.156421
381.995000	0.020466
382.171000	0.315817
382.347000	0.278573
382.522000	-0.136672
382.698000	0.166203
382.874000	0.191966
383.050000	-0.230944
383.225000	0.203385
383.401000	0.261754
383.577000	-0.174862
383.752000	-0.212936
383.928000	-0.047041
384.104000	-0.016426
384.279000	-0.143713
384.455000	-0.093274
384.631000	-0.175983
384.806000	-0.283110
384.982000	-0.072852
385.158000	-0.177710
385.334000	-0.108279
385.509000	-0.119037
385.685000	-0.377387
385.861000	-0.152331
386.036000	-0.253485
386.212000	-0.513146
386.388000	-0.282062
386.563000	-0.261089
386.739000	-0.387772
386.915000	-0.473131
387.090000	-0.239560
387.266000	-0.135158
387.442000	-0.026385
387.618000	-0.031309
387.793000	-0.295597
387.969000	-0.476542
388.145000	-0.294599
388.320000	-0.213733
388.496000	-0.270134
388.672000	-0.506180
388.847000	-0.031159
389.023000	0.025190
389.199000	-0.393263
389.375000	-0.158425
389.550000	-0.243165
389.726000	-0.167758
389.902000	-0.383426
390.077000	-0.170882
390.253000	-0.092270
390.429000	-0.159471
390.604000	-0.051431
390.780000	-0.101844
390.956000	-0.156362
391.131000	-0.161082
391.307000	0.029628
391.483000	-0.010541
391.659000	-0.206987
391.834000	-0.095778
392.010000	-0.195803
392.186000	-0.241125
392.361000	-0.070836
392.537000	-0.333856
392.713000	0.073591
392.888000	0.414996
393.064000	0.073964
393.240000	-0.203507
393.416000	-0.325282
393.591000	-0.362327
393.767000	-0.502703
393.943000	-0.358915
394.118000	0.097165
394.294000	0.272760
394.470000	0.111452
394.645000	0.111098
394.821000	0.404516
394.997000	0.023761
395.172000	-0.000482
395.348000	-0.150309
395.524000	-0.445593
395.700000	-0.185384
395.875000	-0.077090
396.051000	-0.100899
396.227000	-0.154644
396.402000	-0.199054
396.578000	-0.159899
396.754000	-0.255123
396.929000	-0.153538
397.105000	0.109369
397.281000	0.032944
397.457000	-0.181377
397.632000	-0.122941
397.808000	-0.318080
397.984000	-0.480649
398.159000	-0.443394
398.335000	-0.247581
398.511000	0.284123
398.686000	0.056386
398.862000	-0.287555
399.038000	-0.366615
399.213000	-0.131286
399.389000	-0.409912
399.565000	-0.183496
399.741000	0.177666
399.916000	0.179382
400.092000	0.244444
400.268000	-0.135930
400.443000	-0.302990
400.619000	0.056144
400.795000	-0.043092
400.970000	-0.220085
401.146000	-0.164654
401.322000	0.155377
401.497000	0.556397
401.673000	0.255677
401.849000	-0.090302
402.025000	0.103101
402.200000	-0.075590
402.376000	-0.183494
402.552000	0.268133
402.727000	0.037053
402.903000	-0.234489
403.079000	-0.150343
403.254000	0.144847
403.430000	0.148536
403.606000	0.046174
403.782000	0.046116
403.957000	-0.191994
404.133000	-0.412613
404.309000	-0.239252
404.484000	0.036856
404.660000	0.050994
404.841000	-0.178354
405.023000	0.064713
405.204000	0.046227
405.385000	-0.183409
405.566000	-0.266638
405.748000	-0.104276
405.929000	0.141783
406.110000	0.060464
406.292000	-0.065429
406.473000	-0.042331
406.654000	-0.150509
406.835000	0.013551
407.017000	-0.084257
407.198000	-0.101730
407.379000	0.022493
407.560000	0.031773
407.742000	-0.135040
407.923000	-0.051796
408.104000	-0.195518
408.286000	-0.051446
408.467000	0.013407
408.648000	-0.199878
408.829000	-0.300843
409.011000	-0.148527
409.192000	-0.242007
409.373000	0.032008
409.555000	0.045932
409.736000	0.031799
409.917000	-0.097601
410.098000	-0.096955
410.280000	0.036038
410.461000	0.127046
410.642000	0.104471
410.823000	0.373495
411.005000	0.378537
411.186000	0.049805
411.367000	-0.046189
411.549000	0.054382
411.730000	0.223404
411.911000	0.282319
412.092000	0.140511
412.274000	0.171044
412.455000	0.112607
412.636000	0.117236
412.818000	-0.013976
412.999000	-0.090008
413.180000	0.040095
413.361000	0.076419
413.543000	-0.013943
413.724000	-0.094658
413.905000	-0.108120
414.087000	-0.099355
414.268000	-0.093819
414.449000	-0.076176
414.630000	-0.156969
414.812000	-0.187891
414.993000	0.251763
415.174000	0.362551
415.355000	0.164356
415.537000	-0.133475
415.718000	0.123847
415.899000	0.092497
416.081000	0.008374
416.262000	0.206288
416.443000	0.087310
416.624000	0.148390
416.806000	0.245161
416.987000	0.365318
417.168000	0.279904
417.350000	0.082769
417.531000	0.034389
417.712000	0.082265
417.893000	0.373754
418.075000	0.476388
418.256000	0.216931
418.437000	0.318195
418.618000	0.469267
418.800000	0.564061
418.981000	0.340904
419.162000	0.420274
419.344000	0.552664
419.525000	0.420974
419.706000	0.399694
419.887000	0.585534
420.069000	0.723668
420.250000	0.649784
420.431000	0.583342
420.613000	0.486177
420.794000	0.304272
420.975000	0.697461
421.156000	0.517523
421.338000	0.508476
421.519000	0.473877
421.700000	0.501231
421.882000	0.553029
422.063000	0.737145
422.244000	1.188320
422.425000	0.843917
422.607000	0.530628
422.788000	0.558497
422.969000	0.520212
423.150000	0.490660
423.332000	0.429110
423.513000	0.757970
423.694000	0.813933
423.876000	0.725093
424.057000	0.807272
424.238000	0.923026
424.419000	0.917016
424.601000	0.812562
424.782000	0.889918
424.963000	1.115118
425.145000	1.074976
425.326000	1.126265
425.507000	1.064489
425.688000	0.944741
425.870000	0.822847
426.051000	0.718239
426.232000	0.825756
426.413000	0.982106
426.595000	0.981270
426.776000	0.838795
426.957000	0.872670
427.139000	1.071267
427.320000	1.158141
427.501000	1.258133
427.682000	1.277896
427.864000	1.341917
428.045000	1.592575
428.226000	1.502699
428.408000	1.128012
428.589000	1.356591
428.770000	1.366449
428.951000	1.243602
429.133000	1.162642
429.314000	1.349583
429.495000	1.426261
429.677000	1.525619
429.858000	1.428571
430.039000	1.507584
430.220000	1.606681
430.402000	1.683045
430.583000	1.463712
430.764000	1.620394
430.945000	1.833511
431.127000	1.888495
431.308000	1.790900
431.489000	2.009475
431.671000	2.167359
431.852000	2.118886
432.033000	1.923731
432.214000	2.068335
432.396000	2.286963
432.577000	2.130988
432.758000	1.894469
432.940000	2.066455
433.121000	2.208411
433.302000	2.230678
433.483000	2.466638
433.665000	2.560794
433.846000	2.530753
434.027000	2.431062
434.208000	2.419503
434.390000	2.499866
434.571000	2.845647
434.752000	3.233593
434.934000	3.103836
435.115000	3.049184
435.296000	3.210408
435.477000	3.055846
435.659000	2.859565
435.840000	3.127605
436.026000	3.060898
436.211000	2.975560
436.397000	2.817280
436.582000	3.033845
436.768000	3.365942
436.953000	3.304328
437.139000	3.337792
437.325000	3.731996
437.510000	3.755748
437.696000	3.963786
437.881000	4.017987
438.067000	3.682397
438.252000	3.793433
438.438000	3.878917
438.624000	3.971273
438.809000	4.082791
438.995000	4.217559
439.180000	4.276088
439.366000	4.418534
439.551000	4.476069
439.737000	4.625277
439.923000	4.694715
440.108000	4.759763
440.294000	4.902994
440.479000	5.152900
440.665000	5.299070
440.850000	5.409454
441.036000	5.476284
441.222000	5.515101
441.407000	5.558611
441.593000	5.860496
441.778000	6.032741
441.964000	6.408285
442.149000	6.236771
442.335000	6.259352
442.521000	6.537189
442.706000	6.859435
442.892000	6.840822
443.077000	6.986515
443.263000	7.328103
443.448000	7.397821
443.634000	7.479182
443.820000	7.877869
444.005000	7.974799
444.191000	7.968658
444.376000	8.202597
444.562000	8.587023
444.747000	8.876674
444.933000	8.952725
445.119000	9.077379
445.304000	9.236265
445.490000	9.565429
445.675000	9.755428
445.861000	9.830147
446.046000	10.010698
446.232000	10.217332
446.418000	10.567945
446.603000	10.779459
446.789000	10.857285
446.974000	11.080742
447.160000	11.104209
447.345000	11.472085
447.531000	11.702703
447.717000	12.090957
447.902000	12.339647
448.088000	12.564848
448.273000	12.485469
448.459000	12.553642
448.644000	12.888906
448.830000	13.074153
449.016000	13.041051
449.201000	13.329410
449.387000	13.637238
449.572000	13.810646
449.758000	13.827462
449.943000	13.947026
450.129000	14.104968
450.315000	14.144593
450.500000	14.212064
450.686000	14.488706
450.871000	14.598515
451.057000	14.683987
451.243000	14.817832
451.428000	14.874604
451.614000	14.942260
451.799000	14.951714
451.985000	15.290170
452.170000	15.268273
452.356000	14.993504
452.542000	15.007786
452.727000	15.110518
452.913000	15.091492
453.098000	15.152238
453.284000	15.344168
453.469000	15.168036
453.655000	15.163713
453.841000	14.949903
454.026000	14.775342
454.212000	14.638703
454.397000	14.364250
454.583000	14.339257
454.768000	14.195524
454.954000	14.091882
455.140000	14.151107
455.325000	13.945632
455.511000	13.712499
455.696000	13.644920
455.882000	13.784363
456.067000	13.823525
456.253000	13.487867
456.439000	13.109538
456.624000	12.900503
456.810000	12.753523
456.995000	12.831968
457.181000	12.654413
457.366000	12.590020
457.552000	12.299887
457.738000	12.293273
457.923000	12.190266
458.109000	12.384447
458.294000	12.186460
458.480000	12.044277
458.665000	11.890899
458.851000	11.567683
459.037000	11.278788
459.222000	11.279609
459.408000	11.149171
459.593000	11.123480
459.779000	11.094875
459.964000	11.146006
460.150000	11.313487
460.336000	11.182529
460.521000	10.752826
460.707000	10.574657
460.892000	10.324835
461.078000	10.617145
461.263000	10.604317
461.449000	10.308185
461.635000	10.185922
461.820000	10.196755
462.006000	10.198229
462.191000	10.060964
462.377000	9.921592
462.562000	10.304333
462.748000	10.418942
462.934000	9.956946
463.119000	9.709177
463.305000	9.838121
463.490000	9.590405
463.676000	9.740571
463.861000	9.738796
464.047000	9.527640
464.233000	9.627302
464.418000	9.643901
464.604000	9.501486
464.789000	9.697305
464.975000	9.535416
465.160000	9.325887
465.346000	9.414823
465.532000	9.175791
465.717000	9.083527
465.903000	9.290741
466.088000	9.202100
466.274000	8.914887
466.459000	8.905154
466.645000	9.211951
466.831000	9.180742
467.016000	9.178964
467.202000	9.050050
467.387000	8.808412
467.573000	8.527804
467.758000	8.811700
467.944000	8.705495
468.130000	8.667624
468.315000	8.738607
468.501000	8.799966
468.686000	8.607214
468.872000	8.471699
469.057000	8.436486
469.243000	8.392214
469.429000	8.366174
469.614000	8.198092
469.800000	8.086480
469.985000	8.176096
470.171000	8.165173
470.356000	7.979041
470.542000	8.035981
470.728000	7.991877
470.913000	7.880284
471.099000	7.927114
471.284000	7.760114
471.470000	7.679260
471.655000	7.713335
471.841000	7.508460
472.027000	7.337800
472.212000	7.582436
472.398000	7.571291
472.583000	7.369464
472.769000	7.327366
472.954000	7.270028
473.140000	6.941642
473.326000	6.855702
473.511000	7.187817
473.697000	7.219151
473.882000	6.940431
474.068000	6.802411
474.253000	6.678311
474.439000	6.688926
474.625000	6.735614
474.810000	6.763351
474.996000	6.769889
475.181000	6.552341
475.367000	6.630972
475.552000	6.908584
475.738000	6.569163
475.924000	6.561013
476.109000	6.594374
476.295000	6.427603
476.480000	6.427667
476.666000	6.326266
476.851000	6.398140
477.037000	6.438190
477.223000	6.314632
477.408000	6.273781
477.594000	6.146755
477.779000	6.218399
477.965000	6.204173
478.151000	6.038875
478.336000	6.261149
478.522000	6.272407
478.707000	6.261933
478.893000	6.248629
479.078000	6.102864
479.264000	6.104432
479.450000	6.146390
479.635000	6.309025
479.821000	6.204819
480.006000	6.275804
480.192000	6.315890
480.377000	6.474621
480.563000	6.438647
480.749000	6.228709
480.934000	6.254948
481.120000	6.356595
481.305000	6.482051
481.491000	6.459140
481.676000	6.473689
481.862000	6.577802
482.048000	6.387934
482.233000	6.416450
482.419000	6.480280
482.604000	6.434259
482.790000	6.378450
482.975000	6.354705
483.161000	6.559048
483.347000	6.646914
483.532000	6.618727
483.718000	6.423406
483.903000	6.442321
484.089000	6.545131
484.274000	6.521690
484.460000	6.715673
484.646000	6.821487
484.831000	6.740821
485.017000	6.742649
485.202000	6.877225
485.388000	7.154150
485.573000	7.068197
485.759000	6.840487
485.945000	6.979472
486.130000	6.925090
486.316000	6.980149
486.501000	7.000872
486.687000	6.994260
486.872000	6.896154
487.058000	7.083640
487.244000	7.156654
487.429000	7.047912
487.615000	7.195861
487.800000	7.302194
487.986000	7.306865
488.171000	7.437647
488.357000	7.331429
488.543000	7.430734
488.728000	7.572122
488.914000	7.476783
489.099000	7.433492
489.285000	7.434643
489.470000	7.631920
489.656000	7.731113
489.842000	7.746416
490.027000	7.815815
490.213000	7.716602
490.398000	7.494655
490.584000	7.731264
490.769000	7.817754
490.955000	7.948211
491.141000	7.997694
491.326000	8.023779
491.512000	8.185359
491.697000	8.060754
491.883000	8.064045
492.068000	8.065038
492.254000	8.088949
492.440000	8.316121
492.625000	8.281898
492.811000	8.182943
492.996000	8.399059
493.182000	8.425804
493.367000	8.326696
493.553000	8.382666
493.739000	8.474114
493.924000	8.537467
494.110000	8.601678
494.295000	8.556717
494.481000	8.711729
494.666000	8.868766
494.852000	9.052278
495.038000	8.905319
495.223000	8.956259
495.409000	9.016575
495.594000	9.018961
495.780000	9.079882
495.965000	9.057764
496.151000	9.381238
496.337000	9.406830
496.522000	9.242906
496.708000	9.529301
496.893000	9.709793
497.079000	9.548303
497.264000	9.436845
497.450000	9.580394
497.636000	9.769567
497.821000	9.756577
498.007000	9.998926
498.192000	10.113979
498.378000	10.043374
498.563000	9.959496
498.749000	10.010135
498.935000	10.103830
499.120000	10.212666
499.306000	10.065782
499.491000	10.100515
499.677000	10.314163
499.862000	10.577073
500.048000	10.598785
500.234000	10.441564
500.419000	10.516618
500.605000	10.722174
500.790000	10.756941
500.976000	10.646488
501.161000	10.506565
501.347000	10.811392
501.533000	11.005324
501.718000	10.989490
501.904000	11.015101
502.089000	11.147224
502.275000	11.230540
502.460000	11.079295
502.646000	11.216597
502.832000	11.312955
503.017000	11.245288
503.203000	11.154781
503.388000	11.328816
503.574000	11.533511
503.759000	11.499166
503.945000	11.668991
504.131000	11.634520
504.316000	11.580528
504.502000	11.778907
504.687000	11.760166
504.873000	11.590974
505.058000	11.642873
505.244000	11.721639
505.430000	11.963775
505.615000	11.997839
505.801000	12.101508
505.986000	11.923887
506.172000	11.981368
506.358000	12.074764
506.543000	12.190890
506.729000	12.324100
506.914000	12.370113
507.100000	12.652934
507.285000	12.582333
507.471000	12.460651
507.657000	12.680795
507.842000	12.533690
508.028000	12.308003
508.213000	12.430725
508.399000	12.694877
508.584000	12.802933
508.770000	12.754943
508.956000	12.717277
509.141000	12.763123
509.327000	12.996303
509.512000	12.852961
509.698000	12.897869
509.883000	13.105745
510.069000	13.137882
510.255000	13.130943
510.440000	13.153556
510.626000	13.204271
510.811000	13.108082
510.997000	13.280540
511.182000	13.491722
511.368000	13.499993
511.554000	13.091593
511.739000	13.220735
511.925000	13.501252
512.110000	13.530144
512.296000	13.756458
512.481000	13.733322
512.667000	13.741759
512.853000	13.583738
513.038000	13.750558
513.224000	13.670373
513.409000	13.540459
513.595000	13.774634
513.780000	13.735474
513.966000	13.869159
514.152000	13.781037
514.337000	13.776971
514.523000	13.893789
514.708000	14.017258
514.894000	14.004372
515.079000	13.741059
515.265000	14.042747
515.451000	14.267694
515.636000	14.092995
515.822000	14.258868
516.007000	14.138581
516.193000	14.305073
516.378000	14.513498
516.564000	14.366721
516.750000	14.449052
516.935000	14.572455
517.121000	14.521305
517.306000	14.586188
517.492000	14.692159
517.677000	14.394676
517.863000	14.423186
518.049000	14.686054
518.234000	14.616906
518.420000	14.790194
518.605000	14.978916
518.791000	14.935937
518.976000	14.758563
519.162000	14.705617
519.348000	14.821980
519.533000	14.790763
519.719000	15.070974
519.904000	15.110689
520.090000	14.973413
520.275000	15.171003
520.461000	15.165416
520.647000	15.010274
520.832000	14.778025
521.018000	15.005371
521.203000	15.088682
521.389000	14.780819
521.574000	14.963978
521.760000	15.084037
521.946000	15.233700
522.131000	15.246871
522.317000	15.177957
522.502000	15.168210
522.688000	15.385684
522.873000	15.422958
523.059000	15.420869
523.245000	15.484334
523.430000	15.422769
523.616000	15.580855
523.801000	15.555945
523.987000	15.489381
524.172000	15.477950
524.358000	15.663821
524.544000	15.556852
524.729000	15.606449
524.915000	15.712149
525.100000	15.653940
525.286000	15.833409
525.471000	15.855257
525.657000	15.920663
525.843000	15.706995
526.028000	15.711521
526.214000	15.820219
526.399000	15.879075
526.585000	15.727929
526.770000	15.693236
526.956000	15.976051
527.142000	15.953424
527.327000	16.090458
527.513000	15.938807
527.698000	15.953336
527.884000	16.160616
528.069000	16.141336
528.255000	16.129400
528.441000	16.095601
528.626000	16.261469
528.812000	16.501049
528.997000	16.437818
529.183000	16.290912
529.368000	16.282930
529.554000	16.342814
529.740000	16.446048
529.925000	16.432756
530.111000	16.444198
530.296000	16.468503
530.482000	16.674634
530.667000	16.488591
530.853000	16.551524
531.039000	16.618305
531.224000	16.673404
531.410000	16.784483
531.595000	16.827517
531.781000	16.874568
531.967000	16.690123
532.152000	16.804368
532.338000	16.657964
532.523000	16.620296
532.709000	16.674770
532.894000	16.935074
533.080000	16.949759
533.266000	16.850459
533.451000	16.832277
533.637000	16.820000
533.822000	17.109952
534.008000	16.935861
534.193000	16.895743
534.379000	17.106059
534.565000	16.974752
534.750000	17.127384
534.936000	17.271737
535.121000	17.121250
535.307000	17.223285
535.492000	17.218405
535.678000	17.029583
535.864000	17.172475
536.049000	17.632755
536.235000	17.589619
536.420000	17.455127
536.606000	17.360145
536.791000	17.193932
536.977000	17.285693
537.163000	17.450684
537.348000	17.545239
537.534000	17.731375
537.719000	17.542606
537.905000	17.323291
538.090000	17.615162
538.276000	17.781663
538.462000	17.808500
538.647000	17.623745
538.833000	17.661465
539.018000	18.097914
539.204000	17.941257
539.389000	17.905688
539.575000	18.182338
539.761000	18.061904
539.946000	18.010986
540.132000	18.129321
540.317000	17.955755
540.503000	18.042915
540.688000	18.091502
540.874000	18.301518
541.060000	18.450328
541.245000	18.278931
541.431000	18.109894
541.616000	18.336720
541.802000	18.092545
541.987000	18.268373
542.173000	18.483491
542.359000	18.376400
542.544000	18.661035
542.730000	18.618652
542.915000	18.483943
543.101000	18.686986
543.286000	18.675575
543.472000	18.661474
543.658000	18.839523
543.843000	18.826730
544.029000	19.031435
544.214000	18.885961
544.400000	18.579712
544.585000	18.727095
544.771000	18.788421
544.957000	18.996135
545.142000	18.960319
545.328000	19.177895
545.513000	19.265358
545.699000	19.309534
545.884000	19.210128
546.070000	19.158279
546.261000	19.428086
546.451000	19.257224
546.642000	19.045872
546.833000	19.144362
547.023000	18.938766
547.214000	19.085656
547.405000	19.178756
547.595000	19.709209
547.786000	19.727730
547.977000	19.360981
548.167000	19.390572
548.358000	19.342652
548.549000	19.851492
548.740000	19.878274
548.930000	19.617160
549.121000	19.669069
549.312000	19.699339
549.502000	19.683800
549.693000	19.753501
549.884000	19.840583
550.074000	20.163701
550.265000	19.944174
550.456000	20.197126
550.646000	20.158460
550.837000	20.215579
551.028000	20.151437
551.218000	20.137056
551.409000	20.174651
551.600000	20.191850
551.790000	20.363558
551.981000	20.183063
552.172000	20.552713
552.362000	20.732798
552.553000	20.615773
552.744000	20.643739
552.934000	20.703274
553.125000	20.791281
553.316000	20.660502
553.506000	21.103453
553.697000	20.887639
553.888000	21.023518
554.079000	21.184698
554.269000	21.336788
554.460000	21.165828
554.651000	21.032895
554.841000	20.662207
555.032000	20.811375
555.223000	21.080636
555.413000	21.338856
555.604000	21.462326
555.795000	21.344071
555.985000	21.591248
556.176000	21.636907
556.367000	21.264115
556.557000	21.420245
556.748000	21.518935
556.939000	21.604188
557.129000	21.387182
557.320000	21.968783
557.511000	22.064879
557.701000	21.987524
557.892000	22.146863
558.083000	22.473021
558.273000	22.401475
558.464000	22.080863
558.655000	22.199020
558.845000	22.110160
559.036000	22.262774
559.227000	22.302797
559.418000	22.670359
559.608000	22.751273
559.799000	22.363895
559.990000	22.414190
560.180000	22.650567
560.371000	22.472984
560.562000	22.561008
560.752000	23.118516
560.943000	23.082049
561.134000	22.686479
561.324000	22.917178
561.515000	23.352458
561.706000	23.298837
561.896000	23.070386
562.087000	23.250080
562.278000	23.250363
562.468000	23.128479
562.659000	23.410458
562.850000	23.859522
563.040000	24.060215
563.231000	23.822156
563.422000	23.832309
563.612000	23.658169
563.803000	24.038487
563.994000	23.816678
564.185000	23.910813
564.375000	24.216128
564.566000	24.219118
564.757000	24.471913
564.947000	24.651135
565.138000	24.655300
565.329000	24.776023
565.519000	24.514695
565.710000	24.723701
565.901000	25.008188
566.091000	25.081891
566.282000	25.162141
566.473000	25.084282
566.663000	24.991073
566.854000	25.128985
567.045000	25.404707
567.235000	25.395557
567.426000	25.549828
567.617000	25.575517
567.807000	25.622764
567.998000	25.642933
568.189000	25.641177
568.379000	25.801525
568.570000	25.797122
568.761000	25.989850
568.951000	26.109992
569.142000	25.871120
569.333000	26.090719
569.524000	26.118262
569.714000	25.995122
569.905000	26.044336
570.096000	26.561746
570.286000	26.882798
570.477000	26.912057
570.668000	26.989026
570.858000	27.183112
571.049000	26.932730
571.240000	27.172166
571.430000	27.539205
571.621000	27.287220
571.812000	27.435018
572.002000	27.474929
572.193000	27.263283
572.384000	27.519286
572.574000	27.813715
572.765000	27.714860
572.956000	27.820383
573.146000	28.299965
573.337000	28.173699
573.528000	28.102864
573.718000	28.303355
573.909000	28.527961
574.100000	28.633805
574.290000	28.434667
574.481000	28.487263
574.672000	28.726751
574.863000	28.805244
575.053000	28.605061
575.244000	28.883354
575.435000	28.996433
575.625000	28.991752
575.816000	29.074689
576.007000	29.631026
576.197000	29.779708
576.388000	29.621515
576.579000	29.738840
576.769000	29.911472
576.960000	29.597158
577.155000	29.477469
577.350000	30.118888
577.545000	30.495662
577.740000	30.296241
577.935000	30.538840
578.130000	30.457955
578.326000	30.436012
578.521000	30.838653
578.716000	30.837724
578.911000	30.737439
579.106000	30.836652
579.301000	30.907169
579.496000	31.072599
579.691000	31.033819
579.886000	31.153251
580.081000	31.264619
580.276000	31.464961
580.471000	31.292602
580.666000	31.238316
580.861000	31.471107
581.057000	31.536300
581.252000	31.751143
581.447000	31.753094
581.642000	31.977187
581.837000	32.287370
582.032000	32.195528
582.227000	32.519577
582.422000	32.627722
582.617000	32.383714
582.812000	32.487911
583.007000	32.789213
583.202000	32.804500
583.397000	33.252893
583.592000	33.400423
583.788000	33.096568
583.983000	33.333226
584.178000	33.516640
584.373000	33.388428
584.568000	33.522186
584.763000	33.750710
584.958000	33.752252
585.153000	33.899707
585.348000	33.791103
585.543000	34.155155
585.738000	34.088652
585.933000	33.834607
586.128000	34.316502
586.324000	34.571299
586.519000	34.377307
586.714000	34.640357
586.909000	35.052339
587.104000	35.062493
587.299000	34.769163
587.494000	34.804539
587.689000	35.172566
587.884000	35.203389
588.079000	35.328350
588.274000	35.452803
588.469000	35.200026
588.664000	35.345276
588.859000	35.558803
589.055000	35.516411
589.250000	35.672434
589.445000	35.429316
589.640000	35.553340
589.835000	36.104833
590.030000	36.197870
590.225000	36.288255
590.420000	36.262679
590.615000	36.275197
590.810000	36.242656
591.005000	36.423039
591.200000	36.297767
591.395000	36.360397
591.591000	36.606010
591.786000	36.695315
591.981000	36.719632
592.176000	37.067720
592.371000	37.037851
592.566000	36.701657
592.761000	37.218556
592.956000	37.273476
593.151000	37.195549
593.346000	37.149188
593.541000	37.308445
593.736000	37.455632
593.931000	37.322178
594.126000	37.693591
594.322000	37.696187
594.517000	37.344057
594.712000	37.263180
594.907000	37.714594
595.102000	37.951533
595.297000	37.959400
595.492000	38.334024
595.687000	38.239141
595.882000	38.053943
596.077000	38.049922
596.272000	38.353602
596.467000	38.394738
596.662000	38.251765
596.857000	38.280906
597.053000	38.431997
597.248000	38.464799
597.443000	38.771884
597.638000	38.712220
597.833000	38.533672
598.028000	38.803469
598.223000	39.161223
598.418000	38.890567
598.613000	38.735959
598.808000	39.031746
599.003000	39.019761
599.198000	38.577502
599.393000	38.686628
599.589000	38.917251
599.784000	39.011138
599.979000	39.231938
600.174000	39.476809
600.369000	39.308490
600.564000	39.481151
600.759000	39.535753
600.954000	39.603477
601.149000	39.459656
601.344000	39.386059
601.539000	39.554444
601.734000	39.389028
601.929000	39.230633
602.124000	39.373327
602.320000	39.670222
602.515000	40.116843
602.710000	40.199698
602.905000	39.778328
603.100000	39.506779
603.295000	39.464853
603.490000	39.794899
603.685000	39.835706
603.880000	39.756398
604.075000	39.788663
604.270000	39.980000
604.465000	40.356027
604.660000	40.029002
604.856000	40.020838
605.051000	40.187813
605.246000	40.030598
605.441000	39.789915
605.636000	40.032799
605.831000	40.235201
606.026000	39.896489
606.221000	39.839323
606.416000	40.071025
606.611000	40.412842
606.806000	40.711745
607.001000	40.643385
607.196000	40.370482
607.391000	40.016388
607.587000	40.430896
607.782000	40.623077
607.977000	40.116270
608.172000	40.523517
608.367000	40.592277
608.562000	40.569061
608.757000	40.508226
608.952000	40.476290
609.147000	40.756582
609.342000	40.632341
609.537000	40.344661
609.732000	40.290487
609.927000	40.263058
610.122000	40.340685
610.318000	40.760779
610.513000	40.777564
610.708000	40.431956
610.903000	40.608814
611.098000	40.695553
611.293000	40.350476
611.488000	40.413128
611.683000	40.624952
611.878000	40.377421
612.073000	40.415293
612.268000	40.348989
612.463000	40.457046
612.658000	40.435558
612.854000	40.555905
613.049000	40.662804
613.244000	40.681730
613.439000	40.511013
613.634000	39.908864
613.829000	40.361038
614.024000	40.313937
614.219000	39.973514
614.414000	40.459659
614.609000	40.341008
614.804000	39.993919
614.999000	39.783185
615.194000	39.967243
615.389000	39.794530
615.585000	39.710282
615.780000	40.206637
615.975000	40.336432
616.170000	40.162632
616.365000	40.325418
616.560000	40.282874
616.755000	40.409834
616.950000	40.078306
617.145000	39.956337
617.340000	39.803750
617.535000	39.457877
617.730000	39.729983
617.925000	39.493855
618.120000	39.292110
618.316000	39.651840
618.511000	39.482935
618.706000	39.397533
618.901000	39.404731
619.096000	39.610083
619.291000	39.345525
619.486000	39.151939
619.681000	38.993354
619.876000	39.064258
620.071000	39.144750
620.266000	39.438968
620.461000	39.310246
620.656000	39.141895
620.852000	39.013695
621.047000	38.760127
621.242000	38.736703
621.437000	39.188559
621.632000	39.253774
621.827000	38.750569
622.022000	38.288132
622.217000	38.574866
622.412000	38.771885
622.607000	38.541093
622.802000	38.170023
622.997000	38.255795
623.192000	38.224161
623.387000	38.052589
623.583000	37.834090
623.778000	38.114539
623.973000	38.125429
624.168000	38.125205
624.363000	38.066472
624.558000	37.859810
624.753000	37.790147
624.948000	38.023948
625.143000	37.754260
625.338000	37.673766
625.533000	37.512436
625.728000	37.687604
625.923000	37.644527
626.119000	37.210913
626.314000	36.879826
626.509000	37.119073
626.704000	37.192795
626.899000	37.156849
627.094000	37.135520
627.289000	37.055003
627.484000	36.927131
627.679000	36.994434
627.874000	36.909913
628.069000	36.880409
628.264000	36.494061
628.459000	36.437231
628.654000	36.396529
628.850000	36.529040
629.045000	36.579596
629.240000	36.502355
629.435000	36.178388
629.630000	36.043262
629.825000	35.997532
630.020000	36.034806
630.215000	35.706455
630.410000	35.647968
630.605000	35.637113
630.800000	35.736714
630.995000	35.531152
631.190000	35.557248
631.385000	35.674221
631.581000	35.362524
631.776000	35.143291
631.971000	34.913204
632.166000	34.985620
632.361000	34.588121
632.556000	34.575620
632.751000	34.539915
632.946000	34.540956
633.141000	34.375542
633.336000	34.153359
633.531000	34.176614
633.726000	34.231802
633.921000	33.955021
634.117000	33.628819
634.312000	33.621423
634.507000	33.755776
634.702000	33.650922
634.897000	33.869640
635.092000	33.798191
635.287000	33.559835
635.482000	33.397635
635.677000	33.549171
635.872000	33.646714
636.067000	33.468307
636.262000	33.158083
636.457000	32.642228
636.652000	32.926479
636.848000	32.799222
637.043000	32.692931
637.238000	32.525064
637.433000	32.190388
637.628000	32.194420
637.823000	32.379342
638.018000	32.425821
638.213000	32.142224
638.408000	31.922127
638.603000	31.877423
638.798000	31.726368
638.993000	31.637691
639.188000	31.568424
639.383000	31.402553
639.579000	31.658146
639.774000	31.446383
639.969000	30.966189
640.164000	31.036987
640.359000	30.892936
640.554000	30.997516
640.749000	30.910055
640.944000	31.020470
641.139000	30.724902
641.334000	30.276740
641.529000	30.022495
641.724000	30.124589
641.919000	30.144591
642.115000	30.457041
642.310000	30.212050
642.505000	30.157840
642.700000	30.016111
642.895000	29.779237
643.090000	29.862841
643.285000	30.003503
643.480000	29.819681
643.675000	29.647629
643.870000	29.924671
644.065000	29.558760
644.260000	28.802022
644.455000	28.993722
644.650000	28.977107
644.846000	28.966725
645.041000	28.622746
645.236000	28.459609
645.431000	28.372838
645.626000	27.917544
645.821000	28.023110
646.016000	27.910412
646.211000	28.525759
646.406000	28.311613
646.601000	28.205690
646.796000	27.898569
646.991000	27.646452
647.186000	27.651768
647.381000	27.647236
647.577000	27.522585
647.772000	27.456960
647.967000	27.527503
648.162000	27.296898
648.357000	26.895253
648.552000	27.086836
648.747000	26.905820
648.942000	26.833021
649.137000	26.717429
649.332000	26.328668
649.527000	26.283679
649.722000	26.630356
649.917000	26.595317
650.113000	26.127772
650.308000	25.796709
650.503000	25.850816
650.698000	25.942523
650.893000	25.574667
651.088000	25.699454
651.283000	25.789714
651.478000	25.322746
651.673000	25.484974
651.868000	25.313584
652.063000	25.329615
652.258000	25.274653
652.453000	25.276011
652.648000	24.882450
652.844000	24.717581
653.039000	24.633361
653.234000	24.183026
653.429000	23.859043
653.624000	24.047730
653.819000	24.324592
654.014000	23.984588
654.209000	23.892057
654.404000	24.189542
654.599000	23.979981
654.794000	23.840724
654.989000	24.044123
655.184000	23.898800
655.380000	23.180213
655.575000	23.078803
655.770000	23.093960
655.965000	23.232905
656.160000	23.100322
656.355000	23.275249
656.550000	23.207247
656.745000	23.013643
656.940000	22.566955
657.135000	22.573080
657.330000	22.384381
657.525000	22.120797
657.720000	22.579658
657.915000	22.558781
658.111000	22.001702
658.306000	22.392727
658.501000	22.063965
658.696000	21.698488
658.891000	21.655858
659.086000	21.419059
659.281000	21.530200
659.476000	21.273341
659.671000	20.637944
659.866000	20.981463
660.061000	21.377240
660.256000	21.357665
660.451000	21.241397
660.646000	20.957364
660.842000	20.680974
661.037000	20.452940
661.232000	20.429119
661.427000	20.631164
661.622000	20.290899
661.817000	20.025438
662.012000	20.152679
662.207000	20.000545
662.402000	19.979562
662.597000	20.028954
662.792000	19.279726
662.987000	19.382653
663.182000	19.524757
663.378000	19.427282
663.573000	19.015388
663.768000	18.946168
663.963000	19.247133
664.158000	19.086585
664.353000	19.535539
664.548000	19.755925
664.743000	19.149703
664.938000	18.609022
665.133000	18.530277
665.328000	19.092106
665.523000	18.912971
665.718000	18.415795
665.913000	18.431403
666.109000	18.351849
666.304000	18.394177
666.499000	18.177434
666.694000	18.428799
666.889000	18.348113
667.084000	17.996990
667.279000	17.828510
667.474000	17.674652
667.669000	17.858466
667.864000	17.733790
668.059000	17.493101
668.254000	17.515299
668.449000	17.205741
668.644000	17.160416
668.840000	17.205031
669.035000	16.826561
669.230000	16.650942
669.425000	16.974850
669.620000	16.556752
669.815000	16.505954
670.010000	16.398497
670.205000	16.393683
670.400000	16.401333
670.595000	16.328034
670.790000	16.214292
670.985000	16.033704
671.180000	16.175066
671.376000	15.799812
671.571000	15.661210
671.766000	15.622919
671.961000	15.492085
672.156000	15.349528
672.351000	15.216123
672.546000	15.348006
672.741000	15.538608
672.936000	15.428050
673.131000	15.744937
673.326000	15.418961
673.521000	14.905328
673.716000	14.597599
673.911000	14.375731
674.107000	14.767563
674.302000	14.941439
674.497000	14.750570
674.692000	14.376422
674.887000	14.298902
675.082000	14.529630
675.277000	14.670588
675.472000	14.499211
675.667000	14.063242
675.862000	13.911232
676.057000	13.977887
676.252000	14.013833
676.447000	13.920164
676.643000	14.100631
676.838000	14.018426
677.033000	13.685329
677.228000	14.118381
677.423000	14.036835
677.618000	13.390750
677.813000	12.957221
678.008000	13.290063
678.203000	13.563243
678.398000	13.042834
678.593000	13.164123
678.788000	13.174273
678.983000	12.741881
679.178000	12.891444
679.374000	12.629952
679.569000	12.820468
679.764000	12.747115
679.959000	12.409949
680.154000	12.189158
680.349000	12.053442
680.544000	12.004386
680.739000	12.109500
680.934000	12.022826
681.129000	11.858170
681.324000	11.747046
681.519000	12.009837
681.714000	12.053906
681.909000	11.734101
682.105000	11.414563
682.300000	12.140047
682.495000	12.160490
682.690000	11.920575
682.885000	11.588676
683.080000	11.520132
683.275000	11.405004
683.470000	11.472658
683.665000	11.679869
683.860000	11.862042
684.055000	11.605364
684.250000	10.981058
684.445000	10.983846
684.641000	11.450288
684.836000	11.008073
685.031000	11.136325
685.226000	11.015052
685.421000	11.066579
685.616000	10.683725
685.811000	10.469536
686.006000	10.742667
686.201000	10.407082
686.396000	10.068175
686.591000	10.088391
686.786000	10.415445
686.981000	10.257441
687.176000	10.344746
687.372000	10.280080
687.567000	10.513739
687.762000	10.187750
687.957000	10.173467
688.152000	9.978959
688.347000	9.941064
688.542000	9.601560
688.737000	9.149269
688.932000	9.192863
689.127000	9.500612
689.322000	9.738968
689.517000	9.441176
689.712000	9.163677
689.908000	9.300266
690.103000	9.304135
690.298000	9.334037
690.493000	9.344257
690.688000	8.957350
690.883000	9.195218
691.078000	9.569687
691.273000	9.277897
691.468000	8.966738
691.663000	9.058321
691.858000	9.067078
692.053000	8.944553
692.248000	8.946500
692.443000	8.795088
692.639000	8.698057
692.834000	8.690758
693.029000	9.214387
693.224000	9.258127
693.419000	8.561667
693.614000	8.293862
693.809000	8.037581
694.004000	8.008933
694.199000	7.846258
694.394000	8.048666
694.589000	7.903221
694.784000	7.911249
694.979000	8.175743
695.174000	7.990415
695.370000	8.285433
695.565000	8.040519
695.760000	7.667725
695.955000	8.056208
696.150000	8.339969
696.345000	7.644221
696.540000	7.932989
696.740000	7.808441
696.940000	7.911133
697.140000	8.026715
697.340000	7.673417
697.539000	7.617508
697.739000	7.515524
697.939000	7.528240
698.139000	7.197927
698.339000	6.674334
698.539000	6.768509
698.739000	6.839606
698.939000	6.899859
699.138000	6.797211
699.338000	7.478778
699.538000	7.682247
699.738000	7.269898
699.938000	6.962954
700.138000	6.645858
700.338000	6.680389
700.538000	6.912312
700.737000	6.756299
700.937000	6.107787
701.137000	6.055760
701.337000	6.912832
701.537000	6.974419
701.737000	6.517709
701.937000	6.455059
702.137000	6.269598
702.337000	6.218081
702.536000	6.044291
702.736000	6.106022
702.936000	5.928054
703.136000	6.547242
703.336000	6.373895
703.536000	5.882394
703.736000	5.756960
703.936000	5.893973
704.135000	5.718655
704.335000	6.174647
704.535000	5.947279
704.735000	5.614258
704.935000	6.121738
705.135000	5.938028
705.335000	5.830929
705.535000	5.969738
705.735000	5.825813
705.934000	5.814901
706.134000	5.523195
706.334000	5.361274
706.534000	5.416785
706.734000	5.285541
706.934000	5.022141
707.134000	5.174970
707.334000	5.481683
707.533000	5.539850
707.733000	5.399821
707.933000	5.188981
708.133000	5.430670
708.333000	5.587570
708.533000	5.146793
708.733000	5.331255
708.933000	5.279544
709.132000	5.168651
709.332000	5.015573
709.532000	4.823931
709.732000	5.019318
709.932000	4.625515
710.132000	4.557726
710.332000	4.377270
710.532000	5.046756
710.732000	5.085006
710.931000	4.803753
711.131000	4.708081
711.331000	4.629887
711.531000	4.727894
711.731000	4.682287
711.931000	4.813499
712.131000	4.815946
712.331000	4.694150
712.530000	4.630961
712.730000	4.462006
712.930000	4.427586
713.130000	4.426580
713.330000	4.316271
713.530000	4.597779
713.730000	5.214420
713.930000	4.772762
714.129000	4.245305
714.329000	4.084215
714.529000	4.372084
714.729000	4.606004
714.929000	4.472862
715.129000	4.004627
715.329000	4.108569
715.529000	4.251203
715.729000	4.963108
715.928000	4.648289
716.128000	4.231317
716.328000	4.344936
716.528000	4.155970
716.728000	4.013598
716.928000	3.971821
717.128000	4.166670
717.328000	3.895525
717.527000	3.578686
717.727000	3.683824
717.927000	3.933608
718.127000	3.910349
718.327000	3.465980
718.527000	3.438702
718.727000	3.714573
718.927000	3.567638
719.127000	3.264844
719.326000	3.447941
719.526000	3.975962
719.726000	3.838623
719.926000	3.242197
720.126000	3.345967
720.326000	3.543321
720.526000	3.432129
720.726000	3.356198
720.925000	3.626038
721.125000	3.292772
721.325000	3.487889
721.525000	3.305425
721.725000	3.114855
721.925000	3.123629
722.125000	3.167405
722.325000	3.793687
722.524000	3.543325
722.724000	2.813536
722.924000	2.778403
723.124000	3.131885
723.324000	3.520534
723.524000	3.444818
723.724000	2.684454
723.924000	2.914258
724.124000	3.126706
724.323000	3.342481
724.523000	3.233799
724.723000	3.638231
724.923000	3.365407
725.123000	3.280506
725.323000	3.481289
725.523000	3.221619
725.723000	2.774834
725.922000	2.715816
726.122000	2.949961
726.322000	2.583610
726.522000	2.630744
726.722000	3.340557
726.922000	3.062240
727.122000	2.920994
727.322000	3.336276
727.521000	3.093341
727.721000	2.738616
727.921000	2.774675
728.121000	2.791941
728.321000	2.527180
728.521000	2.677966
728.721000	2.718660
728.921000	2.997690
729.121000	3.690188
729.320000	3.015013
729.520000	2.580520
729.720000	2.412398
729.920000	2.414771
730.120000	2.717791
730.320000	2.742680
730.520000	2.296993
730.720000	2.377408
730.919000	2.459275
731.119000	2.702001
731.319000	2.164947
731.519000	2.127947
731.719000	2.643816
731.919000	2.470656
732.119000	1.738493
732.319000	1.716254
732.519000	2.345291
732.718000	2.311370
732.918000	2.452214
733.118000	2.337688
733.318000	2.605008
733.518000	2.214295
733.718000	1.630176
733.918000	1.640454
734.118000	1.966180
734.317000	2.301816
734.517000	2.083628
734.717000	2.140630
734.917000	2.616173
735.117000	2.675508
735.317000	2.307380
735.517000	2.691556
735.717000	2.889022
735.916000	1.818585
736.116000	1.618166
736.316000	2.133077
736.516000	2.294318
736.716000	2.085848
736.916000	1.395917
737.116000	1.912269
737.316000	2.363750
737.516000	2.397324
737.715000	2.331384
737.915000	1.580354
738.115000	1.343552
738.315000	1.547824
738.515000	1.431388
738.715000	1.673432
738.915000	2.202064
739.115000	1.776088
739.314000	1.676933
739.514000	2.260586
739.714000	2.344811
739.914000	1.977604
740.114000	1.764343
740.314000	2.160432
740.514000	2.529476
740.714000	1.635495
740.913000	0.962465
741.113000	1.023660
741.313000	1.540965
741.513000	1.724872
741.713000	1.709500
741.913000	1.747730
742.113000	1.704932
742.313000	1.165529
742.513000	1.418259
742.712000	1.544032
742.912000	1.322217
743.112000	1.377363
743.312000	1.014181
743.512000	1.586264
743.712000	1.795503
743.912000	1.021378
744.112000	0.796960
744.311000	0.737565
744.511000	1.201353
744.711000	1.740072
744.911000	1.329877
745.111000	1.135260
745.311000	1.685985
745.511000	1.304841
745.711000	1.108967
745.911000	1.370090
746.110000	0.861522
746.310000	0.647080
746.510000	1.000338
746.710000	1.570788
746.910000	1.666581
747.110000	1.101987
747.310000	0.651404
747.510000	0.960229
747.709000	1.320460
747.909000	1.387442
748.109000	1.668641
748.309000	1.437601
748.509000	1.055610
748.709000	0.716704
748.909000	0.994936
749.109000	1.074576
749.308000	1.797081
749.508000	1.425436
749.708000	1.101597
749.908000	1.610053
750.108000	1.452161
750.308000	0.847783
750.508000	1.613707
750.708000	1.112183
750.908000	0.534870
751.107000	1.216768
751.307000	1.774226
751.507000	1.440579
751.707000	1.328837
751.907000	1.221920
752.107000	1.391889
752.307000	0.864122
752.507000	0.755167
752.706000	0.654626
752.906000	2.014829
753.106000	1.004762
753.306000	0.054933
753.506000	1.123004
753.706000	0.809863
753.906000	0.978971
754.106000	1.386363
754.305000	1.230030
754.505000	1.199278
754.705000	1.114737
754.905000	1.116388
755.105000	1.277927
755.305000	0.330506
755.505000	0.492025
755.705000	1.043845
755.905000	0.839660
756.104000	0.171766
756.304000	-0.139863
756.504000	-0.313892
756.704000	1.139839
756.904000	1.197371
757.104000	0.707648
757.304000	0.440813
757.504000	0.888188
757.703000	0.654025
757.903000	1.382742
758.103000	1.632371
758.303000	1.224479
758.503000	0.861407
758.703000	0.638384
758.903000	0.650518
759.103000	0.735491
759.303000	0.834533
759.502000	0.837167
759.702000	1.088260
759.902000	0.612490
760.102000	0.589833
760.302000	0.833872
760.502000	1.120978
760.702000	1.110505
760.902000	0.870670
761.101000	0.435980
761.301000	-0.037713
761.501000	0.436884
761.701000	0.376793
761.901000	0.550359
762.101000	0.895479
762.301000	0.784936
762.501000	0.343000
762.700000	0.245776
762.900000	0.221153
763.100000	0.505893
763.300000	0.656994
763.500000	0.384144
763.703000	0.630667
763.905000	0.471378
764.108000	1.059693
764.311000	0.872585
764.513000	0.586175
764.716000	0.688942
764.919000	0.740127
765.121000	0.199874
765.324000	-0.039086
765.527000	0.087463
765.729000	0.290266
765.932000	1.001723
766.135000	1.090273
766.337000	0.874954
766.540000	0.317241
766.743000	0.743165
766.945000	0.267727
767.148000	-0.412129
767.351000	-0.142492
767.553000	0.694510
767.756000	0.295384
767.958000	-0.194753
768.161000	0.308519
768.364000	-0.091990
768.566000	-0.235022
768.769000	0.480732
768.972000	0.728161
769.174000	0.233878
769.377000	-0.381304
769.580000	-0.526559
769.782000	0.156125
769.985000	-0.383004
770.188000	-1.109526
770.390000	0.011932
770.593000	1.521469
770.796000	1.125054
770.998000	0.582082
771.201000	0.078312
771.404000	0.530349
771.606000	0.225526
771.809000	0.265473
772.012000	0.252619
772.214000	-0.710297
772.417000	-0.804020
772.620000	0.452113
772.822000	0.065856
773.025000	-0.270194
773.228000	0.065991
773.430000	0.322411
773.633000	0.323023
773.836000	0.133987
774.038000	0.487709
774.241000	0.473995
774.444000	0.039507
774.646000	0.652028
774.849000	0.626213
775.052000	0.394215
775.254000	0.449669
775.457000	0.203464
775.659000	0.080759
775.862000	-0.247812
776.065000	0.012342
776.267000	0.561858
776.470000	1.281904
776.673000	0.509526
776.875000	0.774147
777.078000	0.703784
777.281000	-0.181819
777.483000	0.625166
777.686000	0.696084
777.889000	0.347718
778.091000	0.727257
778.294000	-0.141326
778.497000	-0.267604
778.699000	-0.001402
778.902000	0.153361
779.105000	0.420715
779.307000	1.139949
779.510000	0.210423
779.713000	0.494787
779.915000	0.183491
780.118000	1.123381
780.321000	1.238804
780.523000	0.384364
780.726000	-0.315910
780.929000	-0.258639
781.131000	-0.072989
781.334000	-0.705307
781.537000	-0.908948
781.739000	0.099485
781.942000	-0.160170
782.145000	-0.929727
782.347000	-0.930314
782.550000	-0.495227
782.753000	-0.467714
782.955000	-0.293664
783.158000	-0.118272
783.361000	0.144912
783.563000	-0.001464
783.766000	-0.236315
783.968000	1.542079
784.171000	1.386707
784.374000	0.234831
784.576000	-0.016241
784.779000	0.337583
784.982000	0.784326
785.184000	0.013416
785.387000	0.685276
785.590000	1.132563
785.792000	0.942139
785.995000	0.673558
786.198000	0.223884
786.400000	0.224828
786.603000	0.149762
786.806000	-0.227719
787.008000	0.450869
787.211000	0.649234
787.414000	-0.244486
787.616000	-0.199681
787.819000	-0.169594
788.022000	-0.705302
788.224000	0.075153
788.427000	-0.722803
788.630000	-0.294140
788.832000	0.213828
789.035000	-0.185841
789.238000	-1.035226
789.440000	-0.699867
789.643000	0.509488
789.846000	-0.250034
790.048000	0.122985
790.251000	0.527872
790.454000	-0.125876
790.656000	0.700333
790.859000	0.139140
791.062000	-0.142518
791.264000	0.405293
791.467000	-0.567296
791.669000	-1.260575
791.872000	-0.128111
792.075000	-0.649293
792.277000	-0.507194
792.480000	-0.128679
792.683000	-0.318443
792.885000	-0.731066
793.088000	-0.654164
793.291000	-0.687713
793.493000	-0.960717
793.696000	-0.433372
793.899000	-0.113853
794.101000	-0.339137
794.304000	-0.259358
794.507000	-0.098412
794.709000	0.499896
794.912000	-0.261511
795.115000	-0.620047
795.317000	-0.148054
795.520000	-0.214065
795.723000	-0.493843
795.925000	-0.691733
796.128000	-0.936990
796.331000	-0.544944
796.533000	-1.074328
796.736000	-0.217272
796.939000	-0.051539
797.141000	-0.301713
797.344000	0.498885
797.547000	0.449024
797.749000	0.115343
797.952000	-0.606523
798.155000	-0.638727
798.357000	-0.473919
798.560000	-0.561397
798.763000	0.116908
798.965000	-0.306381
799.168000	-0.510993
799.371000	-0.052689
799.573000	0.083560
799.776000	-1.060580
799.978000	-1.389882
800.181000	-0.430984
800.384000	1.219284
800.586000	0.584356
800.789000	-1.190608
800.992000	-1.034834
801.194000	-0.899067
801.397000	-1.005198
801.600000	-0.817673
801.802000	0.815415
802.005000	0.259880
802.208000	-1.436047
802.410000	-0.316324
802.613000	0.015798
802.816000	-0.124776
803.018000	-1.076634
803.221000	-1.043336
803.424000	0.723540
803.626000	0.263997
803.829000	-0.268393
804.032000	0.746715
804.234000	1.441304
804.437000	-0.144931
804.640000	0.016090
804.842000	0.159475
805.045000	-0.451993
805.248000	-0.398715
805.450000	-0.560540
805.653000	-0.527817
805.856000	-0.635951
806.058000	0.198095
806.261000	-0.475457
806.464000	-0.512402
806.666000	-0.147937
806.869000	-0.204028
807.072000	-1.233225
807.274000	-1.730591
807.477000	-0.979227
807.679000	-0.758563
807.882000	-1.111787
808.085000	-0.858551
808.287000	0.240483
808.490000	-0.842371
808.693000	-1.029875
808.895000	-0.675504
809.098000	-0.451178
809.301000	0.092040
809.503000	-0.624438
809.706000	0.377466
809.909000	1.098074
810.111000	0.871715
810.314000	-0.173218
810.517000	-0.836713
810.719000	-0.688788
810.922000	-0.480936
811.125000	0.399600
811.327000	0.382656
811.530000	-0.368729
811.735000	-0.271792
811.940000	-0.678102
812.146000	-0.564553
812.351000	0.424903
812.556000	0.251089
812.761000	-0.880623
812.967000	0.017649
813.172000	0.095989
813.377000	-0.434271
813.582000	0.234831
813.788000	0.156972
813.993000	-0.755145
814.198000	0.017856
814.403000	-0.775293
814.609000	-0.021949
814.814000	-0.402868
815.019000	0.618203
815.224000	0.437918
815.429000	-0.746790
815.635000	-0.345289
815.840000	-0.224378
816.045000	-0.489384
816.250000	0.282714
816.456000	-0.735498
816.661000	-1.885043
816.866000	-1.560989
817.071000	-1.109019
817.277000	-1.838278
817.482000	-1.118100
817.687000	-0.642344
817.892000	-0.313643
818.097000	0.060423
818.303000	0.185433
818.508000	0.829703
818.713000	7.864440
818.918000	4.007082
819.124000	0.123515
819.329000	-0.758955
819.534000	-1.246203
819.739000	-1.077602
819.945000	-0.807247
820.150000	-0.406983
820.355000	-0.792063
820.560000	-0.151173
820.766000	-0.172907
820.971000	-0.689175
821.176000	-2.025199
821.381000	-2.319792
821.586000	-1.038398
821.792000	0.192808
821.997000	-0.522585
822.202000	-0.761858
822.407000	-1.199592
822.613000	-1.398463
822.818000	-0.833394
823.023000	-0.243096
823.228000	-0.861841
823.434000	0.085895
823.639000	0.726161
823.844000	-0.643980
824.049000	0.374272
824.255000	0.419919
824.460000	-0.337057
824.665000	-0.762227
824.870000	0.558468
825.075000	0.065125
825.281000	-0.340119
825.486000	1.130637
825.691000	-1.046115
825.896000	-2.230472
826.102000	-0.434541
826.307000	-0.458406
826.512000	-1.101083
826.717000	-0.943744
826.923000	-0.647079
827.128000	0.459256
827.333000	-0.606234
827.538000	-0.515247
827.744000	0.324857
827.949000	-0.818767
828.154000	-0.470766
828.359000	-0.072569
828.564000	-0.896376
828.770000	-0.852834
828.975000	0.068666
829.180000	-0.430740
829.385000	-1.738958
829.591000	-1.411828
829.796000	-0.914711
830.001000	-0.916458
830.206000	-1.136521
830.412000	-1.352310
830.617000	-1.138104
830.822000	0.167560
831.027000	-0.705095
831.232000	-1.294422
831.438000	-1.279015
831.643000	-0.886152
831.848000	-1.282041
832.053000	-0.891715
832.259000	-0.373451
832.464000	-2.532210
832.669000	-2.043543
832.874000	-1.443811
833.080000	-1.774678
833.285000	-0.352512
833.490000	-0.227669
833.695000	-1.538703
833.901000	-1.242320
834.106000	-1.168194
834.311000	-0.129916
834.516000	-0.002551
834.721000	-1.080144
834.927000	-0.260203
835.132000	-0.647910
835.337000	0.928073
835.542000	-0.002601
835.748000	-1.430115
835.953000	0.882914
836.158000	0.493451
836.363000	0.102232
836.569000	-0.240390
836.774000	-1.458109
836.979000	-1.353902
837.184000	-2.233650
837.390000	-2.131295
837.595000	-1.203232
837.800000	-0.510743
838.005000	-0.594584
838.210000	-0.648674
838.416000	-0.948409
838.621000	-0.680032
838.826000	-1.194066
839.031000	-0.846398
839.237000	-1.236586
839.442000	-2.172291
839.647000	-2.580371
839.852000	-1.655144
840.058000	-0.610830
840.263000	-0.891581
840.468000	-1.837783
840.673000	-1.142821
840.878000	-0.949074
841.084000	-1.570686
841.289000	-0.255423
841.494000	2.258301
841.699000	2.067271
841.905000	0.622666
842.110000	0.397343
842.315000	-1.349260
842.520000	-0.317659
842.726000	-0.748714
842.931000	-1.636662
843.136000	-0.493684
843.341000	-1.951651
843.547000	-1.599342
843.752000	-1.136223
843.957000	-1.409204
844.162000	-1.680820
844.367000	-1.241975
844.573000	-0.417749
844.778000	0.499384
844.983000	-0.239937
845.188000	-0.598452
845.394000	-2.196119
845.599000	-1.980946
845.804000	-1.326138
846.009000	-0.608608
846.215000	-1.584847
846.420000	-1.619625
846.625000	-0.553874
846.830000	0.301858
847.036000	-0.830302
847.241000	-1.633801
847.446000	-0.003076
847.651000	-0.404713
847.856000	-1.624163
848.062000	-1.972912
848.267000	0.028148
848.472000	-1.635114
848.677000	-2.489419
848.883000	-0.505630
849.088000	0.663024
849.293000	-0.831252
849.498000	-1.052849
849.704000	0.124399
849.909000	-1.154475
850.114000	-2.209882
850.319000	-1.028884
850.524000	-0.647797
850.730000	0.029170
850.935000	-0.523922
851.140000	0.616661
851.345000	0.388213
851.551000	0.323939
851.756000	0.194093
851.961000	-0.893884
852.166000	-0.729339
852.372000	-0.466532
852.577000	-0.636586
852.782000	-0.272013
852.987000	0.867295
853.193000	-0.373038
853.398000	-0.104213
853.603000	-1.384747
853.808000	-2.194509
854.013000	-1.224665
854.219000	0.098559
854.424000	2.453065
854.629000	2.287515
854.834000	-1.036082
855.040000	-0.557734
855.245000	0.445386
855.450000	-2.722606
855.655000	-4.222715
855.861000	-3.866697
856.066000	-2.564815
856.271000	-2.393230
856.476000	-0.109318
856.682000	-1.100929
856.887000	-3.646493
857.092000	-2.059213
857.297000	0.067612
857.502000	-0.360118
857.708000	-0.789517
857.913000	-0.003579
858.118000	-0.545361
858.323000	-0.329627
858.529000	-0.907784
858.734000	-1.127845
858.939000	-1.167542
859.144000	-2.083870
859.350000	-2.412666
859.555000	-2.456824
859.760000	-0.666334
859.965000	0.437960
860.171000	-1.260419
860.376000	-0.486229
860.581000	-2.571631
860.786000	-4.376307
860.991000	-3.644684
861.197000	-2.629624
861.402000	-0.643303
861.607000	-1.547171
861.812000	-2.877041
862.018000	-3.153735
862.223000	-1.562727
862.428000	-1.151226
862.633000	0.034438
862.839000	-0.581410
863.044000	-1.867526
863.249000	-2.133503
863.454000	-0.391466
863.659000	-1.753338
863.865000	-1.254145
864.070000	-1.688332
864.275000	-3.025248
864.480000	-2.250739
864.686000	-4.039395
864.891000	-2.934070
865.096000	-0.361978
865.301000	0.195276
865.507000	-0.565222
865.712000	-0.845773
865.917000	-1.415994
866.122000	-0.327656
866.328000	-3.055126
866.533000	-2.646470
866.738000	0.280859
866.943000	0.281451
867.148000	1.390556
867.354000	-2.029857
867.559000	-3.105629
867.764000	-1.583259
867.969000	-0.839499
868.175000	-2.002169
868.380000	-2.259819
868.585000	-2.973796
868.790000	-0.927535
868.996000	-1.187149
869.201000	-2.926936
869.406000	-4.300862
869.611000	-2.773317
869.817000	-1.621289
870.022000	1.875173
870.227000	0.081357
870.432000	-2.370971
870.637000	-1.469012
870.843000	-2.300815
871.048000	-2.388628
871.253000	-0.264593
871.458000	-0.963472
871.664000	-3.207129
871.869000	-3.667402
872.074000	-3.280061
872.279000	-2.482089
872.485000	-2.097322
872.690000	-0.898916
872.895000	-1.755865
873.100000	-2.432342
873.306000	-2.397533
873.511000	-1.368522
873.716000	-0.323515
873.921000	-2.504107
874.126000	-2.917763
874.332000	-1.751359
874.537000	-0.004619
874.742000	-0.419016
874.947000	-0.605757
875.153000	1.675626
875.358000	-0.285384
875.563000	-1.874309
875.768000	-4.041279
875.974000	-4.010756
876.179000	-1.468599
876.384000	-1.475736
876.589000	-2.877664
876.794000	-2.305710
877.000000	-3.027241
877.205000	-4.412924
877.410000	-2.075282
877.615000	-3.946463
877.821000	-4.757388
878.026000	-2.673405
878.231000	-4.273567
878.436000	-4.669459
878.642000	-2.989347
878.847000	-1.426901
879.052000	0.190962
879.257000	-1.387864
879.463000	-2.725157
879.668000	-2.429144
879.873000	-0.650681
880.078000	-2.146034
880.283000	-4.153825
880.489000	-4.953492
880.694000	-4.774207
880.899000	-2.180027
881.104000	-0.411367
881.310000	1.924743
881.515000	0.400739
881.720000	1.571217
881.925000	3.420943
882.131000	3.881403
882.336000	0.252506
882.541000	-4.056286
882.746000	-3.763135
882.952000	-3.185302
883.157000	-2.722800
883.362000	-2.831665
883.567000	-3.737046
883.772000	-3.718695
883.978000	-2.448210
884.183000	-1.548911
884.388000	-2.394935
884.593000	-4.467746
884.799000	0.261473
885.004000	0.211051
885.209000	-2.116828
885.414000	-2.217479
885.620000	-5.113726
885.825000	-1.702229
886.030000	-1.098003
886.235000	-2.533773
886.440000	-1.391047
886.646000	-4.009072
886.851000	-4.420423
887.056000	0.162583
887.261000	-0.061719
887.467000	-4.061847
887.672000	-1.820718
887.877000	-2.400099
888.082000	-4.588257
888.288000	-5.827112
888.493000	-7.578119
888.698000	-4.796501
888.903000	-1.336747
889.109000	-3.643899
889.314000	-0.641367
889.519000	-2.250641
889.724000	0.167167
889.929000	-1.102285
890.135000	-2.551913
890.340000	-1.987974
890.545000	-2.919417
890.750000	-5.320281
890.956000	-3.462957
891.161000	-2.053708
891.366000	-3.526403
891.571000	-2.417228
891.777000	-1.713064
891.982000	0.703953
892.187000	-0.600034
892.392000	-0.717142
892.598000	-0.959662
892.803000	-0.787745
893.008000	-2.709321
893.213000	-4.080209
893.418000	-3.626270
893.624000	-4.735983
893.829000	-7.710678
894.034000	-3.410631
894.239000	-1.411286
894.445000	-4.089955
894.650000	-4.110570
894.855000	-4.115696
895.060000	-3.251546
895.266000	-2.964194
895.471000	-5.309101
895.676000	-1.738753
895.881000	-1.192030
896.087000	-3.252187
896.292000	-3.084859
896.497000	0.561916
896.702000	-0.760891
896.907000	-2.840423
897.113000	0.499384
897.318000	0.435951
897.523000	0.500448
897.728000	-2.804392
897.934000	-3.112288
898.139000	-3.756485
898.344000	-1.417909
898.549000	-1.748607
898.755000	-3.237241
898.960000	-4.297465
899.165000	-5.795405
899.370000	-0.920991
899.575000	2.219949
899.781000	-3.224454
899.986000	-4.406764
900.191000	-2.584279
900.396000	-3.116645
900.602000	-1.471154
900.807000	-3.157514
901.012000	-3.380505
901.217000	-1.021404
901.423000	-3.444690
901.628000	-5.620588
901.833000	0.061176
902.038000	1.157678
902.244000	-2.807691
902.449000	-2.686792
902.654000	-3.062311
902.859000	-2.223811
903.064000	-0.842277
903.270000	0.062874
903.475000	-3.992065
903.680000	-6.222943
903.885000	-5.146165
904.091000	-5.384930
904.296000	-6.329888
904.501000	-4.429247
904.706000	-4.157283
904.912000	-0.875149
905.117000	-2.258776
905.322000	-4.839781
905.527000	-5.108854
905.733000	-3.726590
905.938000	-4.850669
906.143000	-4.314833
906.348000	-6.771028
906.553000	-2.028662
906.759000	0.965069
906.964000	-2.338189
907.169000	-3.334243
907.374000	-5.137294
907.580000	-4.633778
907.785000	-3.247852
907.990000	26.407415
908.195000	18.726280
908.401000	-0.007798
908.606000	-8.475688
908.811000	-9.093889
909.016000	-1.650534
909.221000	-0.557151
909.427000	-2.454376
909.632000	-5.182725
909.837000	-4.337011
910.042000	-5.475156
910.248000	-7.603087
910.453000	-3.336785
910.658000	-5.080146
910.863000	-5.728615
911.069000	-6.241601
911.274000	-2.817366
911.479000	-0.008313
911.684000	-6.735806
911.890000	-4.107604
912.095000	-4.615235
912.300000	-8.106840
912.506000	-6.001038
912.711000	-5.221273
912.917000	-3.600848
913.123000	-1.292669
913.328000	-1.903610
913.534000	-3.746525
913.740000	5.330947
913.946000	3.158266
914.151000	-5.270678
914.357000	-4.569180
914.563000	-0.272959
914.768000	-4.357269
914.974000	-8.259707
915.180000	-7.525061
915.385000	-5.555036
915.591000	-7.989196
915.797000	-3.690196
916.002000	0.176004
916.208000	-3.052384
916.414000	-5.696341
916.620000	-6.269099
916.825000	-2.821028
917.031000	-4.417662
917.237000	-9.237361
917.442000	-4.768491
917.648000	-5.189621
917.854000	-7.391046
918.059000	-2.229666
918.265000	-1.359261
918.471000	-2.238151
918.676000	-7.452060
918.882000	-10.064082
919.088000	-6.626212
919.294000	-12.249958
919.499000	-7.725436
919.705000	0.191417
919.911000	-2.730091
920.116000	-0.518924
920.322000	-6.549875
920.528000	-4.324884
920.733000	-6.572675
920.939000	-9.423775
921.145000	-7.210968
921.350000	-5.823721
921.556000	-4.486302
921.762000	-4.793926
921.968000	-6.086791
922.173000	-8.381150
922.379000	-10.838822
922.585000	-5.026809
922.790000	-5.691125
922.996000	-8.047245
923.202000	-8.033086
923.407000	-7.859143
923.613000	-7.083862
923.819000	-5.195807
924.024000	-3.483565
924.230000	0.214165
924.436000	-4.321742
924.642000	3.663474
924.847000	3.353383
925.053000	-3.025319
925.259000	-9.529386
925.464000	-3.282869
925.670000	-4.214077
925.876000	-4.969942
926.081000	-6.658166
926.287000	-2.152815
926.493000	-3.159091
926.698000	-5.467918
926.904000	-2.783466
927.110000	-4.497223
927.316000	-4.272733
927.521000	1.709296
927.727000	-2.134423
927.933000	-4.650910
928.138000	-6.559913
928.344000	-13.004645
928.550000	-9.579751
928.755000	-3.883646
928.961000	-7.996544
929.167000	-5.842877
929.372000	0.377197
929.578000	-1.588311
929.784000	-4.508914
929.990000	-7.452020
930.195000	-8.537230
930.401000	-6.856465
930.607000	-2.030963
930.812000	-3.137336
931.018000	-9.014627
931.224000	-13.281562
931.429000	-9.593047
931.635000	-13.035498
931.841000	-11.624315
932.046000	-7.029665
932.252000	-2.694593
932.458000	6.106956
932.664000	-0.734174
932.869000	-4.337596
933.075000	-6.108186
933.281000	-7.078034
933.486000	-1.654947
933.692000	-4.657734
933.898000	-10.125084
934.103000	-1.978577
934.309000	-5.258550
934.515000	-4.091041
934.720000	-3.004113
934.926000	-2.394898
935.132000	-0.650794
935.338000	-2.583245
935.543000	-11.734409
935.749000	-12.337308
935.955000	-13.714348
936.160000	-11.369041
936.366000	-2.201092
936.572000	-4.129139
936.777000	-3.339451
936.983000	-0.017525
937.189000	-4.433291
937.394000	-11.116661
937.600000	-2.176104
937.806000	3.967257
938.012000	-4.618745
938.217000	3.689148
938.423000	-2.259151
938.629000	-11.222698
938.834000	-14.688339
939.040000	-11.739859
939.246000	-9.217862
939.451000	-9.334068
939.657000	-3.547130
939.863000	-6.975944
940.068000	-1.826125
940.274000	-10.526553
940.480000	-8.209795
940.686000	-4.190304
940.891000	-8.082729
941.097000	22.046331
941.303000	8.627009
941.508000	-7.022603
941.714000	-6.207529
941.920000	-15.581718
942.125000	-5.452009
942.331000	-4.604502
942.537000	1.286540
942.742000	-0.903120
942.948000	-11.037279
943.154000	-14.104331
943.360000	-26.526649
943.565000	-8.336224
943.771000	2.926155
943.977000	5.609565
944.182000	-13.066566
944.388000	-15.607902
944.594000	-3.227415
944.799000	5.294860
945.005000	-1.386806
945.211000	1.801356
945.416000	-3.033144
945.622000	-13.486487
945.828000	-13.397367
946.034000	-5.508566
946.239000	-5.539318
946.445000	-7.578724
946.651000	-16.942627
946.856000	-17.457025
947.062000	2.577030
947.268000	3.309345
947.473000	-17.235485
947.679000	-19.023961
947.885000	-7.020429
948.090000	-1.723409
948.296000	10.095733
948.502000	-0.510898
948.708000	-4.687314
948.913000	-6.729579
949.119000	1.961040
949.325000	-6.234599
949.530000	-26.620044
949.736000	-31.730037
949.942000	-16.308691
950.147000	-13.445108
950.353000	-9.881176
950.559000	-7.175296
950.764000	10.676724
950.970000	5.487518
951.176000	-9.404077
951.382000	-11.279682
951.587000	0.755739
951.793000	2.334668
951.999000	3.077253
952.204000	-10.732058
952.410000	-24.352500
952.616000	-15.432425
952.821000	-8.554550
953.027000	-11.676155
953.233000	-19.792445
953.438000	-18.342362
953.644000	3.157484
953.850000	-6.133327
954.056000	-14.247867
954.261000	-8.666645
954.467000	2.137910
954.673000	4.563936
954.878000	-7.072665
955.084000	-8.980630
955.290000	-22.365030
955.495000	-22.157192
955.701000	-15.558554
955.907000	1.359604
956.112000	0.527247
956.318000	8.773488
956.524000	3.032374
956.730000	-5.114612
956.935000	-14.483276
957.141000	-15.229384
957.347000	-6.027196
957.552000	-13.154657
957.758000	-28.583201
957.964000	-33.200303
958.169000	4.318702
958.375000	2.296874
958.581000	-12.007931
958.786000	-21.477979
958.992000	-30.138896
959.198000	-14.068140
959.404000	-8.363299
959.609000	-14.170955
959.815000	-17.154902
960.021000	-5.182550
960.226000	-6.451457
960.432000	-22.807837
960.638000	-16.442368
960.843000	-10.258484
961.049000	-12.369956
961.255000	-1.285603
961.460000	-11.401079
961.666000	-35.046591
961.872000	-21.585303
962.078000	-14.663789
962.283000	-24.758453
962.489000	-26.175686
962.695000	-14.756467
962.900000	-6.200222
963.106000	-12.829933
963.312000	-19.644535
963.517000	-26.808879
963.723000	-28.142587
963.929000	0.640407
964.134000	14.431419
964.340000	-11.939602
964.546000	-14.668274
964.752000	-17.630039
964.957000	-33.093315
965.163000	-6.699345
965.369000	-7.497992
965.574000	-4.344219
965.780000	-12.971669
966.000000	-21.972707
966.220000	-15.954053
966.440000	-18.947947
966.661000	-7.354262
966.881000	-29.030351
967.101000	-37.359038
967.321000	-37.166935
967.541000	-15.654183
967.761000	-19.596786
967.981000	-13.945168
968.202000	-6.963961
968.422000	-1.970101
968.642000	-1.578934
968.862000	-0.825624
969.082000	-13.901015
969.302000	-6.992775
969.522000	-6.471093
969.743000	5.440382
969.963000	-20.041224
970.183000	-27.378918
970.403000	-25.509808
970.623000	-24.546913
970.843000	-3.347432
971.063000	1.636601
971.284000	-21.996137
971.504000	-35.982666
971.724000	-13.337992
971.944000	-26.876007
972.164000	-35.307310
972.384000	-31.549164
972.604000	-45.571328
972.825000	-45.930101
973.045000	-32.355245
973.265000	28.013860
973.485000	11.748661
973.705000	-18.291998
973.925000	-18.568717
974.145000	-43.054999
974.365000	-11.429721
974.586000	-18.175289
974.806000	-40.448086
975.026000	-5.795276
975.246000	-19.549247
975.466000	-28.130465
975.686000	-10.058076
975.906000	-22.474146
976.127000	-57.956110
976.347000	-48.801030
976.567000	-15.487045
976.787000	-13.536794
977.007000	-26.794242
977.227000	-30.367442
977.447000	-29.714280
977.668000	-48.529361
977.888000	-37.986819
978.108000	-25.554476
978.328000	-16.188537
978.548000	4.184874
978.768000	-0.053961
978.988000	-14.149442
979.209000	-28.675432
979.429000	-32.226795
979.649000	-12.745140
979.869000	-26.222552
980.089000	-44.950987
980.309000	-49.970491
980.529000	-58.063162
980.750000	-34.245601
980.970000	-44.532490
981.190000	-35.255563
981.410000	-40.454061
981.630000	-36.659610
981.850000	-23.044067
982.070000	-23.559697
982.291000	-50.079504
982.511000	-50.047049
982.731000	-9.752381
982.951000	-25.385598
983.171000	-19.378474
983.391000	-12.351250
983.611000	5.176551
983.832000	-28.186380
984.052000	-48.257777
984.272000	-26.256983
984.492000	-23.175283
984.712000	-32.186962
984.932000	-51.528169
985.152000	-63.205310
985.373000	-57.825475
985.593000	-20.598613
985.813000	-21.366349
986.033000	-31.426149
986.253000	22.318376
986.473000	14.124693
986.693000	-14.689725
986.914000	-29.142649
987.134000	11.396299
987.354000	-28.090027
987.574000	202.085833
987.794000	132.841231
988.014000	-53.042442
988.234000	-36.894201
988.455000	-18.260171
988.675000	-35.789745
988.895000	-43.912946
989.115000	-40.103736
989.335000	-12.773404
989.555000	1.604357
989.775000	-42.664874
989.995000	-38.237072
990.216000	-28.986180
990.436000	-32.088234
990.656000	16.374333
990.876000	-12.920966
991.096000	-15.610584
991.316000	18.901991
991.536000	-10.563070
991.757000	-26.946912
991.977000	-78.222464
992.197000	-27.153008
992.417000	-26.626106
992.637000	-92.230914
992.857000	-102.208549
993.077000	-68.471201
993.298000	-33.015220
993.518000	-31.651251
993.738000	-78.454849
993.958000	-36.204092
994.178000	-50.686705
994.398000	-39.743974
994.618000	-72.652200
994.839000	-131.898524
995.059000	-60.098654
995.279000	10.213115
995.499000	-23.225455
995.719000	-25.717125
995.939000	-34.697399
996.159000	-27.523285
996.380000	-23.210759
996.600000	-60.295589
996.820000	-58.615820
997.040000	-0.121434
997.260000	-37.079008
997.480000	-51.953798
997.700000	-111.060495
997.921000	-46.814178
998.141000	32.963624
998.361000	-7.549175
998.581000	-27.139133
998.801000	-73.166212
999.021000	-73.996753
999.241000	-32.882363
999.462000	-60.293126
999.682000	-119.124499
999.902000	-76.800563
1000.122000	-75.933665
1000.342000	-163.256006
1000.562000	-83.055476
1000.782000	-104.685614
1001.003000	-1101.579151
