Wavelength	Irradiance
(nm)	(mW/cm2/nm)

294.396000	0.000000
294.577000	0.000000
294.757000	0.000000
294.938000	-0.000000
295.118000	0.000000
295.299000	0.000000
295.479000	-0.000000
295.660000	-0.000000
295.840000	-0.000000
296.021000	-0.000000
296.202000	-0.000000
296.382000	-0.000000
296.563000	-0.000000
296.743000	-0.000000
296.924000	0.000000
297.104000	-0.000000
297.285000	-0.000000
297.465000	-0.000000
297.646000	-0.000000
297.826000	0.000000
298.007000	0.000000
298.187000	0.000000
298.368000	-0.000000
298.548000	0.000000
298.729000	0.000000
298.909000	-0.000000
299.090000	-0.000000
299.270000	-0.000000
299.451000	-0.000000
299.631000	-0.000000
299.812000	-0.000000
299.992000	0.000000
300.173000	0.000000
300.353000	-0.000000
300.534000	0.000000
300.714000	0.000000
300.895000	0.000000
301.075000	-0.000000
301.256000	0.000000
301.436000	-0.000000
301.617000	-0.000000
301.797000	-0.000000
301.978000	0.000000
302.159000	0.000000
302.339000	0.000000
302.520000	0.000000
302.700000	-0.000000
302.881000	0.000000
303.061000	0.000000
303.242000	0.000000
303.422000	0.000000
303.603000	-0.000000
303.783000	-0.000000
303.964000	0.000000
304.144000	0.000000
304.325000	-0.000000
304.505000	0.000000
304.686000	0.000000
304.866000	0.000000
305.047000	0.000000
305.227000	-0.000000
305.408000	-0.000000
305.588000	-0.000000
305.769000	-0.000000
305.949000	-0.000000
306.130000	-0.000000
306.310000	-0.000000
306.491000	-0.000000
306.671000	0.000000
306.852000	-0.000000
307.032000	-0.000000
307.213000	0.000000
307.393000	-0.000000
307.574000	0.000000
307.755000	0.000000
307.935000	0.000000
308.116000	0.000000
308.296000	-0.000000
308.477000	0.000000
308.657000	0.000000
308.838000	0.000000
309.018000	0.000000
309.199000	-0.000000
309.379000	-0.000000
309.560000	0.000000
309.740000	-0.000000
309.921000	0.000000
310.101000	0.000000
310.282000	-0.000000
310.462000	-0.000000
310.643000	-0.000000
310.823000	-0.000000
311.004000	-0.000000
311.184000	-0.000000
311.365000	0.000000
311.545000	0.000000
311.726000	0.000000
311.906000	-0.000000
312.087000	0.000000
312.267000	-0.000000
312.448000	-0.000000
312.628000	-0.000000
312.809000	-0.000000
312.989000	-0.000000
313.170000	-0.000000
313.344000	-0.000000
313.518000	-0.000000
313.691000	-0.000000
313.865000	-0.000000
314.039000	-0.000000
314.213000	-0.000000
314.387000	-0.000000
314.560000	-0.000000
314.734000	-0.000000
314.908000	-0.000000
315.082000	-0.000000
315.255000	0.000000
315.429000	0.000000
315.603000	0.000000
315.777000	-0.000000
315.951000	0.000000
316.124000	-0.000000
316.298000	-0.000000
316.472000	-0.000000
316.646000	-0.000000
316.820000	-0.000000
316.993000	0.000000
317.167000	-0.000000
317.341000	-0.000000
317.515000	-0.000000
317.688000	-0.000000
317.862000	-0.000000
318.036000	-0.000000
318.210000	-0.000000
318.384000	-0.000000
318.557000	-0.000000
318.731000	-0.000000
318.905000	0.000000
319.079000	0.000000
319.253000	-0.000000
319.426000	0.000000
319.600000	0.000000
319.774000	-0.000000
319.948000	-0.000000
320.122000	0.000000
320.295000	0.000000
320.469000	-0.000000
320.643000	-0.000000
320.817000	-0.000000
320.990000	-0.000000
321.164000	-0.000000
321.338000	-0.000000
321.512000	-0.000000
321.686000	-0.000000
321.859000	-0.000000
322.033000	0.000000
322.207000	0.000000
322.381000	-0.000000
322.555000	0.000000
322.728000	0.000000
322.902000	-0.000000
323.076000	-0.000000
323.250000	-0.000000
323.423000	-0.000000
323.597000	-0.000000
323.771000	-0.000000
323.945000	-0.000000
324.119000	-0.000000
324.292000	0.000000
324.466000	-0.000000
324.640000	0.000000
324.814000	0.000000
324.988000	-0.000000
325.161000	-0.000000
325.335000	-0.000000
325.509000	-0.000000
325.683000	-0.000000
325.856000	-0.000000
326.030000	-0.000000
326.204000	-0.000000
326.378000	0.000000
326.552000	-0.000000
326.725000	-0.000000
326.899000	-0.000000
327.073000	-0.000000
327.247000	-0.000000
327.421000	0.000000
327.594000	0.000000
327.768000	-0.000000
327.942000	-0.000000
328.116000	0.000000
328.289000	0.000000
328.463000	0.000000
328.637000	0.000000
328.811000	-0.000000
328.985000	-0.000000
329.158000	-0.000000
329.332000	-0.000000
329.506000	0.000000
329.680000	-0.000000
329.854000	0.000000
330.027000	0.000000
330.201000	0.000000
330.375000	0.000000
330.549000	0.000000
330.723000	-0.000000
330.896000	-0.000000
331.070000	-0.000000
331.244000	-0.000000
331.418000	-0.000000
331.591000	0.000000
331.765000	-0.000000
331.939000	-0.000000
332.113000	-0.000000
332.287000	-0.000000
332.460000	0.000000
332.634000	0.000000
332.808000	-0.000000
332.982000	-0.000000
333.156000	-0.000000
333.329000	0.000000
333.503000	-0.000000
333.677000	-0.000000
333.851000	-0.000000
334.024000	-0.000000
334.198000	-0.000000
334.372000	-0.000000
334.546000	-0.000000
334.720000	-0.000000
334.893000	-0.000000
335.067000	-0.000000
335.241000	0.000000
335.415000	-0.000000
335.589000	-0.000000
335.762000	-0.000000
335.936000	-0.000000
336.110000	-0.000000
336.284000	-0.000000
336.458000	-0.000000
336.631000	-0.000000
336.805000	-0.000000
336.979000	-0.000000
337.153000	-0.000000
337.326000	-0.000000
337.500000	0.000000
337.674000	0.000000
337.848000	-0.000000
338.022000	0.000000
338.195000	-0.000000
338.369000	-0.000000
338.543000	-0.000000
338.717000	-0.000000
338.891000	0.000000
339.064000	0.000000
339.238000	-0.000000
339.412000	-0.000000
339.586000	0.000000
339.759000	-0.000000
339.933000	-0.000000
340.107000	0.000000
340.281000	-0.000000
340.455000	-0.000000
340.628000	-0.000000
340.802000	-0.000000
340.976000	0.000000
341.150000	-0.000000
341.324000	-0.000000
341.497000	-0.000000
341.671000	-0.000000
341.845000	-0.000000
342.019000	-0.000000
342.192000	-0.000000
342.366000	-0.000000
342.540000	-0.000000
342.714000	-0.000000
342.888000	-0.000000
343.061000	0.000000
343.235000	-0.000000
343.409000	-0.000000
343.583000	-0.000000
343.757000	0.000000
343.930000	-0.000000
344.104000	-0.000000
344.278000	0.000000
344.452000	0.000000
344.626000	-0.000000
344.799000	-0.000000
344.973000	-0.000000
345.147000	-0.000000
345.321000	-0.000000
345.494000	-0.000000
345.668000	0.000000
345.842000	0.000000
346.016000	-0.000000
346.190000	0.000000
346.363000	0.000000
346.537000	-0.000000
346.711000	-0.000000
346.885000	-0.000000
347.059000	-0.000000
347.232000	0.000000
347.406000	0.000000
347.580000	-0.000000
347.754000	-0.000000
347.927000	0.000000
348.101000	0.000000
348.275000	-0.000000
348.449000	-0.000000
348.623000	-0.000000
348.796000	0.000000
348.970000	0.000000
349.144000	0.000000
349.318000	-0.000000
349.492000	-0.000000
349.665000	-0.000000
349.839000	-0.000000
350.013000	-0.000000
350.187000	-0.000000
350.361000	-0.000000
350.534000	0.000000
350.708000	0.000000
350.882000	0.000000
351.056000	0.000000
351.229000	0.000000
351.403000	-0.000000
351.577000	-0.000000
351.751000	-0.000000
351.925000	-0.000000
352.098000	-0.000000
352.272000	0.000000
352.446000	-0.000000
352.620000	-0.000000
352.794000	-0.000000
352.967000	-0.000000
353.141000	0.000000
353.315000	0.000000
353.489000	-0.000000
353.662000	-0.000000
353.836000	-0.000000
354.010000	-0.000000
354.184000	0.000000
354.358000	-0.000000
354.531000	-0.000000
354.705000	-0.000000
354.879000	-0.000000
355.053000	-0.000000
355.227000	0.000000
355.400000	-0.000000
355.574000	0.000000
355.748000	0.000000
355.922000	-0.000000
356.095000	-0.000000
356.269000	0.000000
356.443000	-0.000000
356.617000	-0.000000
356.791000	-0.000000
356.964000	-0.000000
357.138000	-0.000000
357.312000	-0.000000
357.486000	-0.000000
357.660000	0.000000
357.833000	0.000000
358.007000	-0.000000
358.181000	-0.000000
358.355000	-0.000000
358.529000	-0.000000
358.702000	-0.000000
358.876000	-0.000000
359.050000	-0.000000
359.224000	-0.000000
359.397000	0.000000
359.571000	-0.000000
359.745000	-0.000000
359.919000	0.000000
360.093000	0.053465
360.266000	0.097623
360.440000	0.176109
360.614000	0.162781
360.788000	0.040434
360.962000	-0.168674
361.135000	-0.062285
361.309000	-0.116016
361.483000	-0.291204
361.657000	-0.225525
361.830000	-0.126858
362.004000	0.055911
362.178000	-0.295861
362.352000	-0.235545
362.526000	-0.056327
362.699000	-0.025676
362.873000	-0.351155
363.047000	-0.310417
363.221000	-0.301337
363.395000	-0.114101
363.568000	-0.119500
363.742000	-0.173100
363.916000	-0.159899
364.090000	-0.295318
364.263000	-0.280371
364.437000	-0.339188
364.611000	-0.017271
364.785000	0.002799
364.959000	-0.124055
365.132000	-0.167375
365.306000	-0.194449
365.480000	-0.087493
365.656000	-0.157404
365.831000	-0.124426
366.007000	-0.166164
366.183000	-0.126837
366.358000	-0.223663
366.534000	-0.131715
366.710000	-0.303930
366.886000	-0.247922
367.061000	-0.051739
367.237000	0.064785
367.413000	-0.113492
367.588000	-0.316764
367.764000	-0.298460
367.940000	-0.309880
368.115000	-0.248542
368.291000	-0.225303
368.467000	-0.043873
368.643000	0.217683
368.818000	-0.171819
368.994000	-0.339138
369.170000	-0.213354
369.345000	-0.225031
369.521000	-0.290006
369.697000	-0.130431
369.872000	-0.217512
370.048000	-0.280618
370.224000	-0.187525
370.399000	-0.475021
370.575000	-0.356688
370.751000	-0.417670
370.927000	-0.422094
371.102000	-0.347748
371.278000	-0.310565
371.454000	-0.217025
371.629000	0.105902
371.805000	0.021917
371.981000	0.107055
372.156000	0.255840
372.332000	0.061476
372.508000	0.011102
372.683000	0.056797
372.859000	-0.015995
373.035000	-0.084668
373.211000	0.352201
373.386000	0.145650
373.562000	-0.319465
373.738000	-0.392344
373.913000	-0.548943
374.089000	-0.427756
374.265000	0.011223
374.440000	0.019608
374.616000	0.063657
374.792000	-0.106967
374.968000	0.282168
375.143000	0.038107
375.319000	-0.251683
375.495000	-0.291487
375.670000	-0.180164
375.846000	-0.073061
376.022000	-0.227512
376.197000	-0.143984
376.373000	-0.377124
376.549000	-0.306479
376.724000	-0.351240
376.900000	-0.297923
377.076000	-0.111931
377.252000	0.125961
377.427000	0.226897
377.603000	-0.141120
377.779000	-0.122492
377.954000	-0.265175
378.130000	-0.133453
378.306000	-0.105627
378.481000	-0.150013
378.657000	-0.214824
378.833000	-0.272072
379.009000	-0.111262
379.184000	0.010838
379.360000	-0.002358
379.536000	0.013474
379.711000	-0.080308
379.887000	-0.235264
380.063000	-0.272042
380.238000	-0.295050
380.414000	-0.044307
380.590000	-0.243270
380.765000	-0.231961
380.941000	-0.046709
381.117000	-0.069747
381.293000	-0.157533
381.468000	-0.293906
381.644000	-0.243773
381.820000	-0.134854
381.995000	0.010758
382.171000	0.248067
382.347000	0.221437
382.522000	-0.183015
382.698000	0.120093
382.874000	0.114711
383.050000	-0.211830
383.225000	0.102215
383.401000	0.231067
383.577000	-0.086903
383.752000	-0.194026
383.928000	-0.147066
384.104000	-0.044775
384.279000	-0.153524
384.455000	-0.043545
384.631000	-0.061671
384.806000	-0.295185
384.982000	-0.110828
385.158000	-0.221225
385.334000	-0.104944
385.509000	-0.180101
385.685000	-0.373985
385.861000	-0.138459
386.036000	-0.257873
386.212000	-0.476493
386.388000	-0.271056
386.563000	-0.227112
386.739000	-0.270821
386.915000	-0.535358
387.090000	-0.256969
387.266000	0.020973
387.442000	0.108904
387.618000	0.007956
387.793000	-0.255994
387.969000	-0.442134
388.145000	-0.386693
388.320000	-0.314508
388.496000	-0.221042
388.672000	-0.449228
388.847000	-0.086581
389.023000	-0.033159
389.199000	-0.325308
389.375000	-0.114361
389.550000	-0.227241
389.726000	-0.139123
389.902000	-0.390228
390.077000	-0.185163
390.253000	-0.114445
390.429000	-0.186904
390.604000	-0.096497
390.780000	-0.030148
390.956000	-0.125442
391.131000	-0.195456
391.307000	0.065532
391.483000	-0.132772
391.659000	-0.284292
391.834000	-0.062431
392.010000	-0.197556
392.186000	-0.257919
392.361000	-0.240892
392.537000	-0.323158
392.713000	0.205214
392.888000	0.356382
393.064000	0.005212
393.240000	-0.163152
393.416000	-0.272872
393.591000	-0.388845
393.767000	-0.429858
393.943000	-0.291895
394.118000	0.044188
394.294000	0.239336
394.470000	0.041612
394.645000	0.048757
394.821000	0.263741
394.997000	-0.048249
395.172000	-0.129996
395.348000	-0.231746
395.524000	-0.454642
395.700000	-0.267371
395.875000	-0.059613
396.051000	-0.143219
396.227000	-0.165966
396.402000	-0.208014
396.578000	-0.103620
396.754000	-0.254402
396.929000	-0.217392
397.105000	0.040834
397.281000	-0.049893
397.457000	-0.199705
397.632000	-0.126945
397.808000	-0.395585
397.984000	-0.529855
398.159000	-0.445061
398.335000	-0.303893
398.511000	0.168624
398.686000	0.002606
398.862000	-0.230374
399.038000	-0.363564
399.213000	-0.125913
399.389000	-0.446855
399.565000	-0.192178
399.741000	0.014298
399.916000	0.002603
400.092000	0.254570
400.268000	-0.090854
400.443000	-0.205381
400.619000	0.146494
400.795000	0.057061
400.970000	-0.219384
401.146000	-0.307026
401.322000	0.068715
401.497000	0.507553
401.673000	0.199466
401.849000	-0.136871
402.025000	0.030836
402.200000	-0.121835
402.376000	-0.203908
402.552000	0.200510
402.727000	-0.011491
402.903000	-0.308674
403.079000	-0.159007
403.254000	0.115081
403.430000	0.098015
403.606000	-0.016091
403.782000	-0.034703
403.957000	-0.231000
404.133000	-0.409569
404.309000	-0.308780
404.484000	-0.058083
404.660000	-0.072280
404.841000	-0.184674
405.023000	0.067739
405.204000	0.000233
405.385000	-0.316392
405.566000	-0.300960
405.748000	-0.138956
405.929000	0.076108
406.110000	0.018983
406.292000	-0.092574
406.473000	-0.060241
406.654000	-0.290469
406.835000	-0.102566
407.017000	-0.081231
407.198000	-0.036595
407.379000	-0.018132
407.560000	-0.066540
407.742000	-0.143625
407.923000	-0.095426
408.104000	-0.273772
408.286000	-0.148080
408.467000	-0.052936
408.648000	-0.196864
408.829000	-0.247005
409.011000	-0.089995
409.192000	-0.359759
409.373000	-0.203875
409.555000	-0.067042
409.736000	-0.043550
409.917000	-0.143163
410.098000	-0.091670
410.280000	-0.002053
410.461000	0.036657
410.642000	0.059535
410.823000	0.260169
411.005000	0.157762
411.186000	-0.095726
411.367000	-0.148400
411.549000	-0.146008
411.730000	0.082463
411.911000	0.212309
412.092000	0.063889
412.274000	0.020534
412.455000	0.054495
412.636000	0.054544
412.818000	-0.123759
412.999000	-0.210243
413.180000	-0.078613
413.361000	-0.115081
413.543000	-0.139203
413.724000	-0.188195
413.905000	-0.224091
414.087000	-0.226808
414.268000	-0.235438
414.449000	-0.193558
414.630000	-0.274807
414.812000	-0.392518
414.993000	-0.015265
415.174000	0.159585
415.355000	-0.019821
415.537000	-0.272493
415.718000	0.035733
415.899000	-0.063952
416.081000	-0.182692
416.262000	0.066197
416.443000	-0.041461
416.624000	0.015539
416.806000	0.116441
416.987000	0.235980
417.168000	0.133819
417.350000	-0.017298
417.531000	-0.067254
417.712000	-0.071601
417.893000	0.128573
418.075000	0.262469
418.256000	0.021954
418.437000	0.107156
418.618000	0.243767
418.800000	0.282465
418.981000	0.082309
419.162000	0.163345
419.344000	0.369667
419.525000	0.228299
419.706000	0.145917
419.887000	0.325755
420.069000	0.429475
420.250000	0.290647
420.431000	0.263996
420.613000	0.276108
420.794000	0.050277
420.975000	0.375009
421.156000	0.166393
421.338000	0.086471
421.519000	0.177003
421.700000	0.125632
421.882000	0.125610
422.063000	0.356064
422.244000	0.834914
422.425000	0.583936
422.607000	0.198278
422.788000	0.193026
422.969000	0.094877
423.150000	0.099295
423.332000	0.025987
423.513000	0.293234
423.694000	0.372746
423.876000	0.384572
424.057000	0.434303
424.238000	0.494463
424.419000	0.508946
424.601000	0.380630
424.782000	0.425849
424.963000	0.551529
425.145000	0.466658
425.326000	0.542061
425.507000	0.605673
425.688000	0.539698
425.870000	0.336028
426.051000	0.217537
426.232000	0.307884
426.413000	0.352978
426.595000	0.344672
426.776000	0.340209
426.957000	0.449734
427.139000	0.542520
427.320000	0.575180
427.501000	0.740168
427.682000	0.671770
427.864000	0.669232
428.045000	0.911434
428.226000	0.853875
428.408000	0.481977
428.589000	0.635511
428.770000	0.692279
428.951000	0.639450
429.133000	0.487331
429.314000	0.643077
429.495000	0.666571
429.677000	0.733232
429.858000	0.749045
430.039000	0.810074
430.220000	0.885415
430.402000	0.989737
430.583000	0.770928
430.764000	0.755029
430.945000	0.900044
431.127000	1.010615
431.308000	0.876817
431.489000	1.083941
431.671000	1.171759
431.852000	1.021644
432.033000	0.979281
432.214000	1.110898
432.396000	1.169273
432.577000	0.987526
432.758000	0.837195
432.940000	0.923305
433.121000	1.038916
433.302000	1.160130
433.483000	1.345496
433.665000	1.428500
433.846000	1.377592
434.027000	1.297698
434.208000	1.224824
434.390000	1.166310
434.571000	1.618727
434.752000	2.124223
434.934000	1.890564
435.115000	1.870324
435.296000	1.998655
435.477000	1.816547
435.659000	1.549188
435.840000	1.704152
436.026000	1.653968
436.211000	1.539429
436.397000	1.323293
436.582000	1.433613
436.768000	1.703781
436.953000	1.701470
437.139000	1.701831
437.325000	2.030353
437.510000	2.019944
437.696000	2.180103
437.881000	2.180692
438.067000	1.835588
438.252000	1.955268
438.438000	1.961901
438.624000	2.008080
438.809000	2.113640
438.995000	2.238747
439.180000	2.166263
439.366000	2.167976
439.551000	2.270151
439.737000	2.378324
439.923000	2.488409
440.108000	2.465351
440.294000	2.601794
440.479000	2.808761
440.665000	2.854952
440.850000	2.792496
441.036000	2.868928
441.222000	2.859573
441.407000	2.805016
441.593000	3.033424
441.778000	3.165747
441.964000	3.338612
442.149000	3.151681
442.335000	3.174361
442.521000	3.317078
442.706000	3.550818
442.892000	3.554635
443.077000	3.555031
443.263000	3.725568
443.448000	3.763954
443.634000	3.821809
443.820000	4.245668
444.005000	4.218340
444.191000	3.992283
444.376000	4.128064
444.562000	4.499954
444.747000	4.610078
444.933000	4.698312
445.119000	4.694544
445.304000	4.676469
445.490000	4.936471
445.675000	5.033268
445.861000	4.984810
446.046000	5.127308
446.232000	5.303307
446.418000	5.495190
446.603000	5.578535
446.789000	5.678745
446.974000	5.837961
447.160000	5.714520
447.345000	5.836464
447.531000	5.977601
447.717000	6.306601
447.902000	6.478792
448.088000	6.561692
448.273000	6.533516
448.459000	6.581541
448.644000	6.583238
448.830000	6.637479
449.016000	6.765214
449.201000	6.990372
449.387000	7.157984
449.572000	7.293539
449.758000	7.286927
449.943000	7.223405
450.129000	7.201969
450.315000	7.267438
450.500000	7.341802
450.686000	7.467659
450.871000	7.502491
451.057000	7.736350
451.243000	7.755005
451.428000	7.857514
451.614000	7.860954
451.799000	7.806698
451.985000	8.051022
452.170000	8.083689
452.356000	7.863537
452.542000	7.916975
452.727000	8.071267
452.913000	7.960039
453.098000	8.083770
453.284000	8.278396
453.469000	8.115902
453.655000	8.218938
453.841000	7.995945
454.026000	7.751789
454.212000	7.885545
454.397000	7.838067
454.583000	7.682909
454.768000	7.537193
454.954000	7.660190
455.140000	7.578484
455.325000	7.355555
455.511000	7.273471
455.696000	7.353915
455.882000	7.400744
456.067000	7.523705
456.253000	7.256392
456.439000	6.996591
456.624000	6.881603
456.810000	6.803330
456.995000	6.798108
457.181000	6.681382
457.366000	6.827858
457.552000	6.757126
457.738000	6.735365
457.923000	6.674214
458.109000	6.871298
458.294000	6.680624
458.480000	6.519145
458.665000	6.360824
458.851000	6.184260
459.037000	5.883487
459.222000	6.023457
459.408000	5.998875
459.593000	5.989255
459.779000	6.087480
459.964000	6.133305
460.150000	6.244416
460.336000	6.078210
460.521000	5.805912
460.707000	5.733233
460.892000	5.527551
461.078000	5.695454
461.263000	5.801711
461.449000	5.564973
461.635000	5.555531
461.820000	5.540946
462.006000	5.574334
462.191000	5.560731
462.377000	5.263051
462.562000	5.553478
462.748000	5.747086
462.934000	5.295030
463.119000	5.102971
463.305000	5.229408
463.490000	5.110826
463.676000	5.261486
463.861000	5.221345
464.047000	5.106147
464.233000	5.204436
464.418000	5.161660
464.604000	5.034113
464.789000	5.209785
464.975000	5.141138
465.160000	5.001650
465.346000	5.089671
465.532000	4.940383
465.717000	4.860035
465.903000	5.110932
466.088000	5.047585
466.274000	4.836616
466.459000	4.758672
466.645000	5.098212
466.831000	5.062892
467.016000	5.028030
467.202000	4.935527
467.387000	4.770323
467.573000	4.580519
467.758000	4.907463
467.944000	4.770073
468.130000	4.672114
468.315000	4.737625
468.501000	4.877657
468.686000	4.748813
468.872000	4.691097
469.057000	4.698087
469.243000	4.605668
469.429000	4.537930
469.614000	4.421785
469.800000	4.326509
469.985000	4.416351
470.171000	4.481549
470.356000	4.355528
470.542000	4.391987
470.728000	4.334196
470.913000	4.306097
471.099000	4.379829
471.284000	4.213868
471.470000	4.132797
471.655000	4.130134
471.841000	4.089157
472.027000	4.011825
472.212000	4.203012
472.398000	4.234831
472.583000	4.036003
472.769000	4.000823
472.954000	3.986393
473.140000	3.779861
473.326000	3.696401
473.511000	3.984327
473.697000	3.997185
473.882000	3.836451
474.068000	3.728684
474.253000	3.593206
474.439000	3.677614
474.625000	3.710169
474.810000	3.719368
474.996000	3.722637
475.181000	3.493505
475.367000	3.684944
475.552000	3.901417
475.738000	3.531550
475.924000	3.546038
476.109000	3.637886
476.295000	3.539946
476.480000	3.573093
476.666000	3.526757
476.851000	3.511797
477.037000	3.533458
477.223000	3.372182
477.408000	3.274823
477.594000	3.239002
477.779000	3.424400
477.965000	3.425600
478.151000	3.305160
478.336000	3.429694
478.522000	3.352719
478.707000	3.344185
478.893000	3.436434
479.078000	3.265619
479.264000	3.264813
479.450000	3.317154
479.635000	3.445815
479.821000	3.407397
480.006000	3.501898
480.192000	3.485429
480.377000	3.438644
480.563000	3.423751
480.749000	3.249740
480.934000	3.234745
481.120000	3.385168
481.305000	3.550739
481.491000	3.568486
481.676000	3.604529
481.862000	3.599645
482.048000	3.434060
482.233000	3.533329
482.419000	3.508439
482.604000	3.479121
482.790000	3.505531
482.975000	3.605963
483.161000	3.759407
483.347000	3.710748
483.532000	3.652452
483.718000	3.447328
483.903000	3.521378
484.089000	3.595071
484.274000	3.515555
484.460000	3.696926
484.646000	3.721902
484.831000	3.596213
485.017000	3.647278
485.202000	3.705854
485.388000	3.976691
485.573000	3.983557
485.759000	3.800434
485.945000	3.938789
486.130000	3.819616
486.316000	3.863654
486.501000	3.967727
486.687000	3.769739
486.872000	3.760100
487.058000	3.942232
487.244000	3.957745
487.429000	3.848507
487.615000	4.049648
487.800000	4.122291
487.986000	4.036809
488.171000	4.176294
488.357000	4.092454
488.543000	4.113090
488.728000	4.222697
488.914000	4.097694
489.099000	4.046743
489.285000	4.090685
489.470000	4.244770
489.656000	4.296299
489.842000	4.262151
490.027000	4.382127
490.213000	4.232280
490.398000	4.025776
490.584000	4.253653
490.769000	4.236019
490.955000	4.395042
491.141000	4.469919
491.326000	4.460641
491.512000	4.573012
491.697000	4.487520
491.883000	4.341775
492.068000	4.356593
492.254000	4.443850
492.440000	4.566733
492.625000	4.519891
492.811000	4.442770
492.996000	4.574028
493.182000	4.625552
493.367000	4.501416
493.553000	4.469503
493.739000	4.581016
493.924000	4.712509
494.110000	4.771526
494.295000	4.705269
494.481000	4.813137
494.666000	4.854266
494.852000	5.025365
495.038000	4.914851
495.223000	4.840657
495.409000	4.868400
495.594000	4.854520
495.780000	4.926279
495.965000	4.887451
496.151000	5.126883
496.337000	5.218888
496.522000	4.984091
496.708000	5.150455
496.893000	5.363967
497.079000	5.221227
497.264000	5.169305
497.450000	5.207060
497.636000	5.323806
497.821000	5.198242
498.007000	5.522700
498.192000	5.586845
498.378000	5.447999
498.563000	5.407752
498.749000	5.498895
498.935000	5.485927
499.120000	5.578059
499.306000	5.469575
499.491000	5.464079
499.677000	5.590903
499.862000	5.733327
500.048000	5.846162
500.234000	5.721135
500.419000	5.734682
500.605000	5.914184
500.790000	5.814298
500.976000	5.705245
501.161000	5.695923
501.347000	5.921518
501.533000	5.979853
501.718000	5.898452
501.904000	5.955910
502.089000	6.067981
502.275000	6.102117
502.460000	5.965977
502.646000	6.088045
502.832000	6.148941
503.017000	6.137950
503.203000	6.021531
503.388000	6.034422
503.574000	6.235796
503.759000	6.265357
503.945000	6.368361
504.131000	6.274455
504.316000	6.245617
504.502000	6.371572
504.687000	6.412112
504.873000	6.310551
505.058000	6.214041
505.244000	6.245485
505.430000	6.313839
505.615000	6.455617
505.801000	6.609178
505.986000	6.390587
506.172000	6.469825
506.358000	6.533351
506.543000	6.561265
506.729000	6.791804
506.914000	6.731033
507.100000	6.893300
507.285000	6.690933
507.471000	6.653397
507.657000	6.928066
507.842000	6.779399
508.028000	6.670065
508.213000	6.748574
508.399000	6.851559
508.584000	6.964950
508.770000	6.844677
508.956000	6.851640
509.141000	6.966222
509.327000	7.036283
509.512000	6.938710
509.698000	6.927021
509.883000	7.105511
510.069000	7.086362
510.255000	7.070348
510.440000	7.135034
510.626000	7.085004
510.811000	6.981600
510.997000	7.143144
511.182000	7.400001
511.368000	7.358439
511.554000	7.048913
511.739000	7.178767
511.925000	7.351408
512.110000	7.328495
512.296000	7.476740
512.481000	7.498082
512.667000	7.442050
512.853000	7.220400
513.038000	7.326896
513.224000	7.336713
513.409000	7.246004
513.595000	7.410514
513.780000	7.244338
513.966000	7.335938
514.152000	7.351287
514.337000	7.288451
514.523000	7.385419
514.708000	7.445995
514.894000	7.506819
515.079000	7.466278
515.265000	7.548311
515.451000	7.649725
515.636000	7.595805
515.822000	7.693934
516.007000	7.590350
516.193000	7.739119
516.378000	7.762055
516.564000	7.691153
516.750000	7.774395
516.935000	7.958917
517.121000	7.999308
517.306000	8.024356
517.492000	7.949163
517.677000	7.744858
517.863000	7.709167
518.049000	7.800382
518.234000	7.688004
518.420000	7.909227
518.605000	8.174620
518.791000	8.099515
518.976000	7.925811
519.162000	7.828770
519.348000	7.904851
519.533000	7.948310
519.719000	8.179551
519.904000	8.133747
520.090000	8.034849
520.275000	8.294101
520.461000	8.329977
520.647000	8.145347
520.832000	7.954612
521.018000	8.039274
521.203000	7.964521
521.389000	7.815125
521.574000	7.947523
521.760000	8.140799
521.946000	8.181758
522.131000	8.151485
522.317000	8.143775
522.502000	8.162973
522.688000	8.208735
522.873000	8.201895
523.059000	8.215813
523.245000	8.221114
523.430000	8.143829
523.616000	8.196766
523.801000	8.090529
523.987000	8.165330
524.172000	8.390880
524.358000	8.440094
524.544000	8.397004
524.729000	8.460728
524.915000	8.479369
525.100000	8.378479
525.286000	8.420179
525.471000	8.457019
525.657000	8.467384
525.843000	8.364419
526.028000	8.502969
526.214000	8.357355
526.399000	8.276433
526.585000	8.296171
526.770000	8.336242
526.956000	8.505208
527.142000	8.395058
527.327000	8.559620
527.513000	8.472884
527.698000	8.472454
527.884000	8.529831
528.069000	8.446502
528.255000	8.646417
528.441000	8.527395
528.626000	8.551918
528.812000	8.832594
528.997000	8.662256
529.183000	8.542000
529.368000	8.653578
529.554000	8.689907
529.740000	8.732896
529.925000	8.610301
530.111000	8.675393
530.296000	8.757356
530.482000	8.868468
530.667000	8.719853
530.853000	8.895354
531.039000	8.865488
531.224000	8.962694
531.410000	9.065890
531.595000	8.881066
531.781000	8.952564
531.967000	8.804729
532.152000	8.989262
532.338000	8.908582
532.523000	8.800764
532.709000	8.772434
532.894000	8.911716
533.080000	8.965016
533.266000	8.756434
533.451000	8.752088
533.637000	8.838706
533.822000	9.109273
534.008000	8.933331
534.193000	8.961144
534.379000	9.068145
534.565000	8.997416
534.750000	8.908688
534.936000	9.119112
535.121000	8.969246
535.307000	9.057163
535.492000	9.077190
535.678000	8.958227
535.864000	9.139975
536.049000	9.494943
536.235000	9.239817
536.420000	9.196849
536.606000	9.156279
536.791000	9.135831
536.977000	9.130576
537.163000	9.344804
537.348000	9.337032
537.534000	9.536773
537.719000	9.327544
537.905000	9.166360
538.090000	9.354722
538.276000	9.416720
538.462000	9.418281
538.647000	9.442807
538.833000	9.373150
539.018000	9.542797
539.204000	9.565143
539.389000	9.404854
539.575000	9.660519
539.761000	9.593183
539.946000	9.390221
540.132000	9.493086
540.317000	9.377306
540.503000	9.573219
540.688000	9.761542
540.874000	10.029773
541.060000	10.105925
541.245000	9.919941
541.431000	9.729460
541.616000	9.846780
541.802000	9.764463
541.987000	9.949580
542.173000	10.066483
542.359000	9.943230
542.544000	10.013871
542.730000	9.905786
542.915000	9.938060
543.101000	10.056708
543.286000	9.882818
543.472000	9.824369
543.658000	9.972811
543.843000	10.026981
544.029000	10.269186
544.214000	10.099714
544.400000	9.853767
544.585000	10.054429
544.771000	10.200669
544.957000	10.366261
545.142000	10.413401
545.328000	10.500993
545.513000	10.570120
545.699000	10.669806
545.884000	10.514719
546.070000	10.333273
546.261000	10.301377
546.451000	10.187241
546.642000	9.879399
546.833000	10.088981
547.023000	9.997003
547.214000	10.000104
547.405000	10.277141
547.595000	10.604820
547.786000	10.460257
547.977000	10.309493
548.167000	10.136534
548.358000	10.214641
548.549000	10.685434
548.740000	10.448722
548.930000	10.123999
549.121000	10.305438
549.312000	10.293140
549.502000	10.212050
549.693000	10.314176
549.884000	10.416430
550.074000	10.509643
550.265000	10.330637
550.456000	10.526143
550.646000	10.605748
550.837000	10.661828
551.028000	10.587158
551.218000	10.762280
551.409000	10.555055
551.600000	10.559468
551.790000	10.849686
551.981000	10.681157
552.172000	10.721821
552.362000	11.143551
552.553000	11.095936
552.744000	10.903370
552.934000	10.991562
553.125000	10.885841
553.316000	10.785926
553.506000	11.271326
553.697000	11.135729
553.888000	11.130167
554.079000	11.232245
554.269000	11.220163
554.460000	11.054109
554.651000	11.023293
554.841000	10.812701
555.032000	11.005550
555.223000	11.126898
555.413000	11.283877
555.604000	11.310564
555.795000	11.224643
555.985000	11.335181
556.176000	11.279145
556.367000	11.052536
556.557000	11.236171
556.748000	11.286541
556.939000	11.342566
557.129000	11.264370
557.320000	11.486857
557.511000	11.389796
557.701000	11.409547
557.892000	11.561962
558.083000	11.783675
558.273000	11.710131
558.464000	11.582996
558.655000	11.658163
558.845000	11.741792
559.036000	11.809149
559.227000	11.806043
559.418000	11.931880
559.608000	12.017037
559.799000	11.723341
559.990000	11.637532
560.180000	11.756284
560.371000	11.677573
560.562000	11.699738
560.752000	11.889395
560.943000	11.920786
561.134000	11.839458
561.324000	12.087968
561.515000	12.365339
561.706000	12.205638
561.896000	11.984911
562.087000	12.226170
562.278000	12.151316
562.468000	11.969289
562.659000	12.041537
562.850000	12.492655
563.040000	12.644343
563.231000	12.203489
563.422000	12.391507
563.612000	12.265343
563.803000	12.380270
563.994000	12.401906
564.185000	12.279432
564.375000	12.552783
564.566000	12.708578
564.757000	12.730039
564.947000	12.726474
565.138000	12.957885
565.329000	12.869636
565.519000	12.695003
565.710000	12.790734
565.901000	13.043912
566.091000	13.276142
566.282000	13.082484
566.473000	13.172581
566.663000	13.244230
566.854000	13.000258
567.045000	13.177904
567.235000	13.241427
567.426000	13.329723
567.617000	13.326986
567.807000	13.359901
567.998000	13.348528
568.189000	13.385934
568.379000	13.539051
568.570000	13.513453
568.761000	13.538897
568.951000	13.555498
569.142000	13.611876
569.333000	13.616132
569.524000	13.504733
569.714000	13.427466
569.905000	13.279400
570.096000	13.908650
570.286000	14.050497
570.477000	14.152409
570.668000	13.950335
570.858000	13.978496
571.049000	13.829812
571.240000	13.903207
571.430000	14.221224
571.621000	14.183986
571.812000	14.257878
572.002000	14.386531
572.193000	14.279649
572.384000	14.352517
572.574000	14.427742
572.765000	14.443125
572.956000	14.413204
573.146000	14.710651
573.337000	14.620193
573.528000	14.684138
573.718000	14.845790
573.909000	14.911504
574.100000	14.840948
574.290000	14.767746
574.481000	14.885347
574.672000	14.945503
574.863000	15.006031
575.053000	14.906938
575.244000	15.200630
575.435000	15.181726
575.625000	15.197622
575.816000	15.240343
576.007000	15.304135
576.197000	15.409008
576.388000	15.416834
576.579000	15.530340
576.769000	15.584169
576.960000	15.371599
577.155000	15.284887
577.350000	15.487074
577.545000	15.670466
577.740000	15.538086
577.935000	15.949092
578.130000	15.944735
578.326000	15.745993
578.521000	16.009596
578.716000	16.043758
578.911000	15.932827
579.106000	16.062899
579.301000	16.203221
579.496000	16.109172
579.691000	15.929387
579.886000	16.159786
580.081000	16.359527
580.276000	16.396817
580.471000	16.312560
580.666000	16.202953
580.861000	16.284598
581.057000	16.285019
581.252000	16.386460
581.447000	16.463403
581.642000	16.580500
581.837000	16.580522
582.032000	16.618372
582.227000	16.942386
582.422000	16.983135
582.617000	16.836100
582.812000	16.758902
583.007000	16.941166
583.202000	16.927908
583.397000	17.283106
583.592000	17.484367
583.788000	17.154351
583.983000	17.169613
584.178000	17.410084
584.373000	17.312627
584.568000	17.389959
584.763000	17.342172
584.958000	17.307636
585.153000	17.518579
585.348000	17.538397
585.543000	17.656379
585.738000	17.656181
585.933000	17.533234
586.128000	17.815116
586.324000	17.857784
586.519000	17.992043
586.714000	18.192976
586.909000	18.302101
587.104000	18.329513
587.299000	18.068314
587.494000	18.144072
587.689000	18.217229
587.884000	18.256281
588.079000	18.164636
588.274000	18.322833
588.469000	18.357300
588.664000	18.508096
588.859000	18.483293
589.055000	18.441084
589.250000	18.463846
589.445000	18.366892
589.640000	18.514953
589.835000	18.762559
590.030000	18.888592
590.225000	18.971805
590.420000	18.790487
590.615000	18.701433
590.810000	18.744405
591.005000	18.891253
591.200000	18.744698
591.395000	18.693740
591.591000	18.921716
591.786000	19.025831
591.981000	19.166325
592.176000	19.257621
592.371000	19.142461
592.566000	19.104474
592.761000	19.421058
592.956000	19.351315
593.151000	19.342901
593.346000	19.382334
593.541000	19.515568
593.736000	19.458330
593.931000	19.278613
594.126000	19.369997
594.322000	19.486771
594.517000	19.421997
594.712000	19.288658
594.907000	19.463845
595.102000	19.574965
595.297000	19.661959
595.492000	19.730381
595.687000	19.530783
595.882000	19.591754
596.077000	19.762939
596.272000	19.906437
596.467000	20.023547
596.662000	19.799039
596.857000	19.876014
597.053000	19.919795
597.248000	19.973003
597.443000	20.148175
597.638000	20.157432
597.833000	19.872129
598.028000	20.107636
598.223000	20.256798
598.418000	20.122678
598.613000	20.157407
598.808000	20.330844
599.003000	20.227962
599.198000	20.091052
599.393000	20.170359
599.589000	20.338031
599.784000	20.214262
599.979000	20.265029
600.174000	20.660112
600.369000	20.321201
600.564000	20.460864
600.759000	20.722241
600.954000	20.756595
601.149000	20.658152
601.344000	20.403250
601.539000	20.507252
601.734000	20.305657
601.929000	20.249110
602.124000	20.331553
602.320000	20.451485
602.515000	20.763808
602.710000	20.719716
602.905000	20.417738
603.100000	20.416643
603.295000	20.498734
603.490000	20.644675
603.685000	20.697126
603.880000	20.611548
604.075000	20.603905
604.270000	20.656126
604.465000	20.678940
604.660000	20.492285
604.856000	20.673946
605.051000	20.893728
605.246000	20.823029
605.441000	20.497556
605.636000	20.484125
605.831000	20.740806
606.026000	20.642029
606.221000	20.758416
606.416000	20.959278
606.611000	21.034162
606.806000	21.083844
607.001000	21.304920
607.196000	20.845793
607.391000	20.766880
607.587000	20.995155
607.782000	20.973063
607.977000	20.860815
608.172000	21.290367
608.367000	21.192415
608.562000	21.002202
608.757000	20.954172
608.952000	20.846189
609.147000	21.285742
609.342000	21.205421
609.537000	21.054484
609.732000	21.006934
609.927000	20.799533
610.122000	20.920346
610.318000	21.446122
610.513000	21.562310
610.708000	21.336008
610.903000	21.423497
611.098000	21.486842
611.293000	21.585058
611.488000	21.475838
611.683000	21.350470
611.878000	21.282112
612.073000	21.316787
612.268000	21.384139
612.463000	21.447511
612.658000	21.231112
612.854000	21.164873
613.049000	21.092341
613.244000	21.228694
613.439000	21.296811
613.634000	21.005005
613.829000	21.155729
614.024000	20.993952
614.219000	20.877149
614.414000	21.317217
614.609000	21.105278
614.804000	20.788887
614.999000	20.626953
615.194000	20.837353
615.389000	20.834963
615.585000	20.653039
615.780000	20.910878
615.975000	20.857994
616.170000	20.758065
616.365000	20.928156
616.560000	21.040889
616.755000	20.934912
616.950000	20.758132
617.145000	20.840738
617.340000	20.708496
617.535000	20.376586
617.730000	20.663603
617.925000	20.426120
618.120000	20.286729
618.316000	20.716875
618.511000	20.651533
618.706000	20.430856
618.901000	20.477632
619.096000	20.693713
619.291000	20.480190
619.486000	20.450533
619.681000	20.138803
619.876000	20.183208
620.071000	20.108566
620.266000	20.349571
620.461000	20.420838
620.656000	20.516981
620.852000	20.551463
621.047000	20.359778
621.242000	20.209613
621.437000	20.444550
621.632000	20.500035
621.827000	20.300738
622.022000	19.946022
622.217000	20.176151
622.412000	20.360309
622.607000	20.330628
622.802000	19.815816
622.997000	19.832880
623.192000	20.003752
623.387000	19.958351
623.583000	19.786980
623.778000	20.209937
623.973000	20.121054
624.168000	20.028135
624.363000	20.035348
624.558000	20.191120
624.753000	19.727586
624.948000	19.915515
625.143000	19.841254
625.338000	19.778619
625.533000	19.611776
625.728000	19.719520
625.923000	19.842909
626.119000	19.592294
626.314000	19.273208
626.509000	19.172626
626.704000	19.381050
626.899000	19.405061
627.094000	19.264151
627.289000	19.179155
627.484000	19.248760
627.679000	19.231733
627.874000	19.249219
628.069000	19.517779
628.264000	19.397168
628.459000	19.189633
628.654000	19.057037
628.850000	19.015249
629.045000	18.999362
629.240000	18.904569
629.435000	18.889537
629.630000	18.883029
629.825000	18.763383
630.020000	18.797487
630.215000	18.637864
630.410000	18.701700
630.605000	18.671978
630.800000	18.594105
630.995000	18.866415
631.190000	19.150597
631.385000	18.850500
631.581000	18.583087
631.776000	18.574818
631.971000	18.273462
632.166000	18.350769
632.361000	18.233842
632.556000	18.266934
632.751000	18.468444
632.946000	18.242911
633.141000	18.068737
633.336000	18.158398
633.531000	18.104134
633.726000	18.017802
633.921000	17.843346
634.117000	17.625548
634.312000	17.432042
634.507000	17.523100
634.702000	17.536414
634.897000	17.512258
635.092000	17.618129
635.287000	17.622565
635.482000	17.582764
635.677000	17.658817
635.872000	17.613830
636.067000	17.685851
636.262000	17.371805
636.457000	17.068862
636.652000	17.089125
636.848000	17.029488
637.043000	17.186974
637.238000	17.226684
637.433000	17.009877
637.628000	16.829562
637.823000	16.994538
638.018000	17.074997
638.213000	16.834164
638.408000	16.684934
638.603000	16.615685
638.798000	16.661157
638.993000	16.650418
639.188000	16.650822
639.383000	16.560594
639.579000	16.919996
639.774000	16.597402
639.969000	16.274556
640.164000	16.354760
640.359000	16.332059
640.554000	16.382801
640.749000	16.409032
640.944000	16.428414
641.139000	16.224730
641.334000	15.902068
641.529000	15.551402
641.724000	15.670987
641.919000	15.875440
642.115000	16.235410
642.310000	16.010715
642.505000	15.760056
642.700000	15.821336
642.895000	15.702640
643.090000	15.651205
643.285000	15.833769
643.480000	15.708117
643.675000	15.666672
643.870000	15.996496
644.065000	15.754959
644.260000	15.348797
644.455000	15.380207
644.650000	15.246873
644.846000	15.316372
645.041000	14.991985
645.236000	14.740258
645.431000	14.855792
645.626000	14.555630
645.821000	14.730168
646.016000	14.814946
646.211000	15.266315
646.406000	14.979717
646.601000	14.769802
646.796000	14.649550
646.991000	14.409289
647.186000	14.541782
647.381000	14.688171
647.577000	14.581893
647.772000	14.593910
647.967000	14.602830
648.162000	14.563978
648.357000	14.299749
648.552000	14.555332
648.747000	14.468224
648.942000	14.370593
649.137000	14.250819
649.332000	14.001106
649.527000	13.969788
649.722000	14.295277
649.917000	14.331597
650.113000	13.825114
650.308000	13.623850
650.503000	13.687307
650.698000	13.874444
650.893000	13.625828
651.088000	13.694457
651.283000	13.769915
651.478000	13.314253
651.673000	13.528453
651.868000	13.338831
652.063000	13.659616
652.258000	13.630037
652.453000	13.591010
652.648000	13.232776
652.844000	13.282363
653.039000	13.187427
653.234000	12.762103
653.429000	12.736124
653.624000	12.838469
653.819000	13.001669
654.014000	12.760003
654.209000	12.591884
654.404000	12.809021
654.599000	12.714716
654.794000	12.638078
654.989000	12.929659
655.184000	12.742383
655.380000	12.321767
655.575000	12.248024
655.770000	12.201779
655.965000	12.433562
656.160000	12.387982
656.355000	12.483966
656.550000	12.307296
656.745000	12.245858
656.940000	12.017300
657.135000	12.101635
657.330000	12.051270
657.525000	11.853110
657.720000	11.999327
657.915000	12.066928
658.111000	11.896571
658.306000	12.124895
658.501000	11.874904
658.696000	11.408239
658.891000	11.673829
659.086000	11.531697
659.281000	11.606183
659.476000	11.332311
659.671000	10.829803
659.866000	11.010589
660.061000	11.402584
660.256000	11.492984
660.451000	11.323865
660.646000	11.050316
660.842000	11.142642
661.037000	10.990603
661.232000	10.811509
661.427000	10.917956
661.622000	10.858282
661.817000	10.648541
662.012000	10.829273
662.207000	10.762616
662.402000	10.632213
662.597000	10.740608
662.792000	10.288086
662.987000	10.288556
663.182000	10.578017
663.378000	10.506117
663.573000	10.099183
663.768000	10.021652
663.963000	10.220437
664.158000	10.142597
664.353000	10.528040
664.548000	10.634977
664.743000	10.251907
664.938000	9.924632
665.133000	9.913209
665.328000	10.294151
665.523000	10.239137
665.718000	10.005681
665.913000	9.903211
666.109000	9.943479
666.304000	9.967412
666.499000	9.749956
666.694000	9.901721
666.889000	10.133538
667.084000	9.688049
667.279000	9.630696
667.474000	9.657356
667.669000	9.673209
667.864000	9.468977
668.059000	9.462119
668.254000	9.559421
668.449000	9.405549
668.644000	9.368358
668.840000	9.554252
669.035000	9.155728
669.230000	8.794753
669.425000	9.226768
669.620000	9.026860
669.815000	8.911886
670.010000	8.839109
670.205000	9.009482
670.400000	9.030282
670.595000	8.916083
670.790000	8.801630
670.985000	8.795415
671.180000	8.965854
671.376000	8.646003
671.571000	8.497752
671.766000	8.455293
671.961000	8.380796
672.156000	8.272959
672.351000	8.349598
672.546000	8.451418
672.741000	8.498328
672.936000	8.447121
673.131000	8.920089
673.326000	8.484221
673.521000	7.964586
673.716000	7.889127
673.911000	7.690724
674.107000	8.233519
674.302000	8.475250
674.497000	8.141516
674.692000	7.797344
674.887000	7.754334
675.082000	7.797739
675.277000	8.078374
675.472000	7.923766
675.667000	7.814998
675.862000	7.733025
676.057000	7.696789
676.252000	7.732221
676.447000	7.626361
676.643000	7.827964
676.838000	7.922887
677.033000	7.584389
677.228000	7.876743
677.423000	7.701305
677.618000	7.360750
677.813000	7.169395
678.008000	7.383333
678.203000	7.488317
678.398000	7.232644
678.593000	7.374674
678.788000	7.450703
678.983000	7.005791
679.178000	7.019066
679.374000	7.016242
679.569000	7.005244
679.764000	6.947404
679.959000	6.845861
680.154000	6.811125
680.349000	6.653482
680.544000	6.647859
680.739000	6.704049
680.934000	6.582265
681.129000	6.478399
681.324000	6.403659
681.519000	6.745865
681.714000	6.708385
681.909000	6.524436
682.105000	6.313300
682.300000	6.668378
682.495000	6.835145
682.690000	6.736975
682.885000	6.595081
683.080000	6.428756
683.275000	6.331225
683.470000	6.792871
683.665000	6.919020
683.860000	6.981584
684.055000	6.647802
684.250000	6.157277
684.445000	6.019207
684.641000	6.548584
684.836000	6.288147
685.031000	6.198534
685.226000	6.145566
685.421000	6.446561
685.616000	6.056891
685.811000	5.913825
686.006000	6.077736
686.201000	6.041239
686.396000	5.716594
686.591000	5.759126
686.786000	6.148424
686.981000	5.934716
687.176000	5.997652
687.372000	5.858723
687.567000	6.041808
687.762000	5.832259
687.957000	5.738103
688.152000	5.582959
688.347000	5.641933
688.542000	5.316262
688.737000	4.991878
688.932000	5.070485
689.127000	5.495383
689.322000	5.690631
689.517000	5.418344
689.712000	5.140746
689.908000	5.167168
690.103000	5.187822
690.298000	5.333989
690.493000	5.347951
690.688000	4.984567
690.883000	5.176639
691.078000	5.581901
691.273000	5.528952
691.468000	5.149666
691.663000	5.151296
691.858000	5.378525
692.053000	5.295673
692.248000	5.265122
692.443000	5.171403
692.639000	5.131702
692.834000	5.299780
693.029000	5.717343
693.224000	5.628293
693.419000	5.015688
693.614000	4.861329
693.809000	4.751931
694.004000	4.614866
694.199000	4.635563
694.394000	4.841724
694.589000	4.520578
694.784000	4.506821
694.979000	4.804231
695.174000	4.654514
695.370000	5.010266
695.565000	4.761057
695.760000	4.498856
695.955000	4.879669
696.150000	4.984813
696.345000	4.528656
696.540000	4.633345
696.740000	4.459044
696.940000	4.570356
697.140000	4.635056
697.340000	4.493209
697.539000	4.593075
697.739000	4.478634
697.939000	4.459219
698.139000	4.106929
698.339000	3.820640
698.539000	3.995599
698.739000	3.892960
698.939000	4.080778
699.138000	3.962061
699.338000	4.638146
699.538000	4.690058
699.738000	4.204090
699.938000	4.093093
700.138000	3.901162
700.338000	3.682306
700.538000	3.937534
700.737000	4.051550
700.937000	3.621828
701.137000	3.673449
701.337000	4.321388
701.537000	4.222621
701.737000	3.958587
701.937000	3.936587
702.137000	3.901952
702.337000	3.788307
702.536000	3.524088
702.736000	3.501102
702.936000	3.377721
703.136000	4.012813
703.336000	3.972845
703.536000	3.690108
703.736000	3.307365
703.936000	3.363225
704.135000	3.392881
704.335000	3.712724
704.535000	3.466817
704.735000	3.300811
704.935000	3.856482
705.135000	3.835718
705.335000	3.558938
705.535000	3.692282
705.735000	3.699578
705.934000	3.630247
706.134000	3.365586
706.334000	3.309925
706.534000	3.207129
706.734000	3.277450
706.934000	3.245376
707.134000	3.138557
707.334000	3.392985
707.533000	3.471314
707.733000	3.364787
707.933000	3.131889
708.133000	3.508058
708.333000	3.578569
708.533000	3.331439
708.733000	3.532289
708.933000	3.200860
709.132000	3.243431
709.332000	3.200371
709.532000	3.012828
709.732000	3.170372
709.932000	2.755911
710.132000	2.802851
710.332000	2.489426
710.532000	3.193682
710.732000	3.393666
710.931000	2.948294
711.131000	2.943470
711.331000	3.060274
711.531000	2.897464
711.731000	2.925300
711.931000	2.872545
712.131000	2.893760
712.331000	3.137244
712.530000	3.071840
712.730000	2.725866
712.930000	2.910156
713.130000	2.932743
713.330000	2.692397
713.530000	2.872470
713.730000	3.463408
713.930000	3.076269
714.129000	2.708155
714.329000	2.579570
714.529000	2.806231
714.729000	3.136898
714.929000	2.862082
715.129000	2.491313
715.329000	2.585500
715.529000	2.755440
715.729000	3.344594
715.928000	2.979554
716.128000	2.742085
716.328000	2.788120
716.528000	2.706988
716.728000	2.796193
716.928000	2.505478
717.128000	2.654783
717.328000	2.650124
717.527000	2.412165
717.727000	2.473812
717.927000	2.553999
718.127000	2.512946
718.327000	2.108635
718.527000	2.120348
718.727000	2.552650
718.927000	2.335313
719.127000	2.070420
719.326000	2.335192
719.526000	2.775647
719.726000	2.674352
719.926000	2.202612
720.126000	2.104027
720.326000	2.374688
720.526000	2.194446
720.726000	2.308950
720.925000	2.521992
721.125000	1.993952
721.325000	2.420053
721.525000	2.408561
721.725000	2.183176
721.925000	2.206732
722.125000	2.193856
722.325000	2.563502
722.524000	2.230837
722.724000	1.796590
722.924000	1.691601
723.124000	2.004354
723.324000	2.431262
723.524000	2.358942
723.724000	1.808211
723.924000	1.933592
724.124000	2.198561
724.323000	2.554276
724.523000	2.327295
724.723000	2.561954
724.923000	2.346243
725.123000	2.322181
725.323000	2.485812
725.523000	2.277504
725.723000	2.000204
725.922000	1.873727
726.122000	1.858058
726.322000	1.814053
726.522000	1.860433
726.722000	2.664693
726.922000	2.346767
727.122000	2.131548
727.322000	2.411620
727.521000	2.067758
727.721000	1.846253
727.921000	1.909217
728.121000	1.854858
728.321000	1.430929
728.521000	1.592438
728.721000	1.839093
728.921000	2.276492
729.121000	2.967801
729.320000	2.482020
729.520000	1.934258
729.720000	1.674344
729.920000	1.791707
730.120000	1.914456
730.320000	1.809768
730.520000	1.550630
730.720000	1.642415
730.919000	1.779293
731.119000	1.993287
731.319000	1.455076
731.519000	1.418172
731.719000	1.818714
731.919000	1.488917
732.119000	0.925386
732.319000	0.979068
732.519000	1.709319
732.718000	1.471082
732.918000	1.495490
733.118000	1.643063
733.318000	1.982840
733.518000	1.508308
733.718000	0.988451
733.918000	1.044985
734.118000	1.277691
734.317000	1.591801
734.517000	1.440031
734.717000	1.592558
734.917000	1.883287
735.117000	1.786342
735.317000	1.611586
735.517000	2.074170
735.717000	2.331400
735.916000	1.440937
736.116000	1.302392
736.316000	1.539074
736.516000	1.619547
736.716000	1.453614
736.916000	0.933322
737.116000	1.283980
737.316000	1.980686
737.516000	1.724552
737.715000	1.590719
737.915000	0.998448
738.115000	1.011291
738.315000	1.307278
738.515000	1.016682
738.715000	1.334170
738.915000	1.915962
739.115000	1.162415
739.314000	1.078447
739.514000	1.557151
739.714000	1.624879
739.914000	1.595176
740.114000	1.519268
740.314000	1.540135
740.514000	1.913170
740.714000	1.309685
740.913000	0.765304
741.113000	0.955516
741.313000	1.373339
741.513000	1.312359
741.713000	1.320886
741.913000	1.362305
742.113000	1.154517
742.313000	0.613939
742.513000	0.971845
742.712000	1.040631
742.912000	0.803532
743.112000	0.963343
743.312000	0.665461
743.512000	1.109571
743.712000	1.266243
743.912000	0.629288
744.112000	0.419964
744.311000	0.508294
744.511000	0.868900
744.711000	1.247103
744.911000	0.913581
745.111000	0.852736
745.311000	1.216621
745.511000	0.922923
745.711000	0.788933
745.911000	1.132740
746.110000	0.753961
746.310000	0.622514
746.510000	0.793282
746.710000	1.142725
746.910000	1.285333
747.110000	0.688611
747.310000	0.500392
747.510000	0.782232
747.709000	1.073600
747.909000	1.102852
748.109000	1.340550
748.309000	1.092854
748.509000	0.662291
748.709000	0.579041
748.909000	0.969769
749.109000	0.947111
749.308000	1.432604
749.508000	0.978569
749.708000	0.762686
749.908000	1.146717
750.108000	1.150125
750.308000	0.321592
750.508000	1.184367
750.708000	0.644498
750.908000	0.241184
751.107000	1.009950
751.307000	1.595050
751.507000	1.134085
751.707000	1.165618
751.907000	0.755299
752.107000	0.862882
752.307000	0.555190
752.507000	0.612252
752.706000	0.539594
752.906000	1.643383
753.106000	0.732615
753.306000	0.095852
753.506000	1.147173
753.706000	0.715810
753.906000	0.834209
754.106000	1.015802
754.305000	0.960643
754.505000	0.963160
754.705000	0.797624
754.905000	0.895733
755.105000	1.148307
755.305000	0.235013
755.505000	0.361851
755.705000	0.781448
755.905000	0.662859
756.104000	0.115856
756.304000	-0.213262
756.504000	-0.265823
756.704000	0.809763
756.904000	1.001300
757.104000	0.755871
757.304000	0.576314
757.504000	1.018666
757.703000	0.813728
757.903000	1.067843
758.103000	1.281570
758.303000	0.884477
758.503000	0.662302
758.703000	0.551332
758.903000	0.409388
759.103000	0.624395
759.303000	0.579636
759.502000	0.629373
759.702000	1.066112
759.902000	0.650394
760.102000	0.682107
760.302000	0.732815
760.502000	0.935757
760.702000	0.925018
760.902000	0.733227
761.101000	0.109906
761.301000	-0.194041
761.501000	0.274422
761.701000	0.281070
761.901000	0.552197
762.101000	1.069293
762.301000	0.774495
762.501000	0.289522
762.700000	0.167350
762.900000	0.050038
763.100000	0.470641
763.300000	0.789263
763.500000	0.367361
763.703000	0.267011
763.905000	0.193402
764.108000	0.918026
764.311000	0.581099
764.513000	0.431820
764.716000	0.584157
764.919000	0.515827
765.121000	0.006914
765.324000	-0.251539
765.527000	-0.056407
765.729000	0.178089
765.932000	1.130588
766.135000	1.079485
766.337000	0.705424
766.540000	0.491151
766.743000	0.610320
766.945000	0.032665
767.148000	-0.429461
767.351000	-0.204752
767.553000	0.767311
767.756000	0.490802
767.958000	-0.044497
768.161000	0.239457
768.364000	-0.077090
768.566000	-0.323967
768.769000	0.254697
768.972000	0.508671
769.174000	0.131312
769.377000	-0.340029
769.580000	-0.353885
769.782000	0.400808
769.985000	-0.071731
770.188000	-1.028389
770.390000	-0.145177
770.593000	1.530076
770.796000	1.160171
770.998000	0.458108
771.201000	-0.012610
771.404000	0.479175
771.606000	0.234200
771.809000	0.334176
772.012000	0.314771
772.214000	-0.694914
772.417000	-0.715056
772.620000	0.407435
772.822000	0.135072
773.025000	0.000672
773.228000	-0.140736
773.430000	-0.026306
773.633000	0.345323
773.836000	0.352562
774.038000	0.476161
774.241000	0.326636
774.444000	0.123290
774.646000	0.967152
774.849000	0.628260
775.052000	0.280316
775.254000	0.520058
775.457000	0.212340
775.659000	0.281289
775.862000	-0.067772
776.065000	-0.074740
776.267000	0.625736
776.470000	1.056294
776.673000	0.269952
776.875000	0.769300
777.078000	0.857953
777.281000	-0.131159
777.483000	0.585484
777.686000	0.684227
777.889000	0.335848
778.091000	0.386049
778.294000	-0.719925
778.497000	-0.524701
778.699000	-0.244682
778.902000	-0.062611
779.105000	0.106234
779.307000	0.944791
779.510000	-0.013416
779.713000	0.192102
779.915000	-0.041961
780.118000	1.032970
780.321000	1.141154
780.523000	0.143601
780.726000	-0.328061
780.929000	-0.335087
781.131000	-0.264048
781.334000	-0.803705
781.537000	-0.841966
781.739000	0.224201
781.942000	-0.345591
782.145000	-1.014577
782.347000	-0.761232
782.550000	-0.340560
782.753000	-0.523810
782.955000	-0.298777
783.158000	-0.152586
783.361000	-0.138325
783.563000	-0.270107
783.766000	-0.344197
783.968000	1.544284
784.171000	1.514450
784.374000	0.200123
784.576000	-0.043556
784.779000	0.325053
784.982000	0.771723
785.184000	-0.163232
785.387000	0.344131
785.590000	1.157183
785.792000	1.026766
785.995000	0.840822
786.198000	0.661884
786.400000	0.166735
786.603000	0.129340
786.806000	-0.014327
787.008000	0.219403
787.211000	0.212628
787.414000	-0.629437
787.616000	-0.357445
787.819000	-0.251336
788.022000	-0.779504
788.224000	-0.052914
788.427000	-0.774212
788.630000	-0.222530
788.832000	-0.022306
789.035000	-0.605905
789.238000	-1.233477
789.440000	-0.813925
789.643000	0.387923
789.846000	-0.131229
790.048000	0.436674
790.251000	0.592494
790.454000	0.047398
790.656000	0.827454
790.859000	-0.069570
791.062000	-0.570853
791.264000	0.329398
791.467000	-0.667083
791.669000	-1.313296
791.872000	-0.109922
792.075000	-0.465248
792.277000	-0.291518
792.480000	-0.078637
792.683000	-0.672532
792.885000	-0.752474
793.088000	-0.540362
793.291000	-0.860838
793.493000	-0.670584
793.696000	0.304639
793.899000	0.361604
794.101000	-0.232253
794.304000	-0.329433
794.507000	0.226670
794.709000	0.162587
794.912000	-0.510841
795.115000	-0.674565
795.317000	-0.145614
795.520000	0.196907
795.723000	-0.138637
795.925000	-0.812499
796.128000	-1.082215
796.331000	-0.567170
796.533000	-1.005842
796.736000	-0.513326
796.939000	-0.373239
797.141000	-0.540916
797.344000	0.234426
797.547000	0.509951
797.749000	0.343521
797.952000	-0.301581
798.155000	-0.887679
798.357000	-1.213468
798.560000	-0.838704
798.763000	-0.092340
798.965000	-0.193816
799.168000	-0.253799
799.371000	-0.109626
799.573000	-0.408420
799.776000	-1.126332
799.978000	-1.027416
800.181000	-0.239531
800.384000	1.307850
800.586000	0.586942
800.789000	-0.920955
800.992000	-0.868675
801.194000	-0.853337
801.397000	-0.933398
801.600000	-0.867150
801.802000	0.487684
802.005000	0.279938
802.208000	-1.109832
802.410000	-0.112723
802.613000	0.000878
802.816000	-0.306667
803.018000	-1.029939
803.221000	-0.705267
803.424000	0.903098
803.626000	0.417257
803.829000	-0.327938
804.032000	0.544443
804.234000	1.301450
804.437000	-0.276442
804.640000	-0.356659
804.842000	-0.276842
805.045000	-0.827454
805.248000	-0.495236
805.450000	-0.341551
805.653000	-0.234888
805.856000	-0.560760
806.058000	0.282604
806.261000	-0.837059
806.464000	-0.810544
806.666000	0.055705
806.869000	-0.283985
807.072000	-1.542909
807.274000	-1.856569
807.477000	-0.792049
807.679000	-0.552773
807.882000	-1.025767
808.085000	-0.790575
808.287000	-0.138884
808.490000	-1.063704
808.693000	-0.821470
808.895000	-0.326525
809.098000	-0.167554
809.301000	-0.299600
809.503000	-0.857423
809.706000	0.143209
809.909000	0.569898
810.111000	0.399774
810.314000	-0.027601
810.517000	-0.634649
810.719000	-0.829026
810.922000	-0.248132
811.125000	0.536305
811.327000	0.433612
811.530000	-0.172781
811.735000	-0.558041
811.940000	-0.849077
812.146000	-0.804148
812.351000	-0.047535
812.556000	-0.106080
812.761000	-0.760538
812.967000	0.295134
813.172000	0.040159
813.377000	-0.529575
813.582000	0.178590
813.788000	0.060603
813.993000	-0.940462
814.198000	-0.187483
814.403000	-0.950775
814.609000	-0.058862
814.814000	0.071153
815.019000	0.801263
815.224000	0.540899
815.429000	-0.532415
815.635000	-0.170625
815.840000	-0.261775
816.045000	-0.202048
816.250000	0.316273
816.456000	-0.956555
816.661000	-1.912674
816.866000	-1.332277
817.071000	-1.310938
817.277000	-2.134342
817.482000	-1.135667
817.687000	-0.443031
817.892000	-0.590937
818.097000	0.178143
818.303000	0.761526
818.508000	1.051165
818.713000	8.232727
818.918000	4.459158
819.124000	0.503482
819.329000	-0.755802
819.534000	-0.726425
819.739000	-0.937366
819.945000	-0.814662
820.150000	-0.350516
820.355000	-0.244451
820.560000	0.075586
820.766000	-0.265764
820.971000	-0.363910
821.176000	-2.021970
821.381000	-2.520440
821.586000	-1.186278
821.792000	0.401864
821.997000	-0.345860
822.202000	-0.726044
822.407000	-1.261640
822.613000	-1.526092
822.818000	-0.742618
823.023000	-0.272662
823.228000	-0.505863
823.434000	0.232358
823.639000	0.784651
823.844000	-0.375102
824.049000	0.410813
824.255000	0.567668
824.460000	-0.389512
824.665000	-1.004754
824.870000	-0.077378
825.075000	-0.302044
825.281000	-0.043923
825.486000	1.122706
825.691000	-1.212904
825.896000	-2.318009
826.102000	-0.601760
826.307000	-0.580419
826.512000	-0.811505
826.717000	-0.607349
826.923000	-0.873902
827.128000	-0.564262
827.333000	-1.287957
827.538000	-0.336892
827.744000	0.445218
827.949000	-0.582001
828.154000	-0.268173
828.359000	0.352313
828.564000	-0.610524
828.770000	-0.778418
828.975000	0.593129
829.180000	-0.058305
829.385000	-1.723495
829.591000	-1.145468
829.796000	-0.466959
830.001000	-0.564067
830.206000	-1.193227
830.412000	-1.204062
830.617000	-1.279461
830.822000	-0.168775
831.027000	-0.447045
831.232000	-0.839790
831.438000	-0.833447
831.643000	-0.330159
831.848000	-0.589345
832.053000	-0.776855
832.259000	-0.963305
832.464000	-2.664897
832.669000	-2.002473
832.874000	-1.539485
833.080000	-1.571252
833.285000	0.288760
833.490000	-0.098823
833.695000	-1.610475
833.901000	-1.390336
834.106000	-1.557170
834.311000	-1.170514
834.516000	-0.560004
834.721000	-1.166094
834.927000	0.091457
835.132000	-0.205215
835.337000	1.280948
835.542000	-0.154732
835.748000	-2.010207
835.953000	-0.220077
836.158000	-0.103129
836.363000	-0.431209
836.569000	-0.328886
836.774000	-1.202742
836.979000	-1.535394
837.184000	-1.950792
837.390000	-1.408890
837.595000	-0.812382
837.800000	-0.760766
838.005000	-0.550192
838.210000	-0.994543
838.416000	-1.349659
838.621000	-0.879165
838.826000	-1.014009
839.031000	-0.774277
839.237000	-1.314729
839.442000	-2.236828
839.647000	-2.768209
839.852000	-1.747403
840.058000	-1.076553
840.263000	-1.290154
840.468000	-2.473083
840.673000	-1.555738
840.878000	-0.986648
841.084000	-1.272508
841.289000	-0.588033
841.494000	1.570071
841.699000	1.291690
841.905000	0.598498
842.110000	0.773247
842.315000	-1.430903
842.520000	-0.928652
842.726000	-1.260765
842.931000	-1.603699
843.136000	-0.489353
843.341000	-2.121803
843.547000	-1.536935
843.752000	-1.262631
843.957000	-1.712432
844.162000	-1.543941
844.367000	-1.060547
844.573000	-0.191098
844.778000	0.045801
844.983000	-0.042952
845.188000	-0.281362
845.394000	-2.101485
845.599000	-1.616824
845.804000	-1.291556
846.009000	-0.558648
846.215000	-1.534655
846.420000	-1.188030
846.625000	-0.105573
846.830000	0.733301
847.036000	-0.902302
847.241000	-1.690722
847.446000	0.109215
847.651000	-0.492761
847.856000	-2.133857
848.062000	-2.233986
848.267000	-0.311193
848.472000	-1.159644
848.677000	-2.610585
848.883000	-0.799273
849.088000	0.842263
849.293000	-0.810550
849.498000	-1.382063
849.704000	-0.062200
849.909000	-0.590029
850.114000	-1.501504
850.319000	-0.367001
850.524000	-0.642963
850.730000	-0.500759
850.935000	-0.877000
851.140000	-0.275703
851.345000	-0.194106
851.551000	-0.145609
851.756000	0.050991
851.961000	-0.839459
852.166000	-1.037906
852.372000	-0.759355
852.577000	-0.648251
852.782000	-1.224060
852.987000	-0.015069
853.193000	-0.569639
853.398000	-0.771511
853.603000	-1.868229
853.808000	-2.374856
854.013000	-1.083880
854.219000	0.256593
854.424000	1.724652
854.629000	1.198467
854.834000	-1.461185
855.040000	-0.500575
855.245000	0.174357
855.450000	-2.596974
855.655000	-3.871687
855.861000	-3.060990
856.066000	-2.120972
856.271000	-2.001387
856.476000	-0.209820
856.682000	-1.254918
856.887000	-3.694240
857.092000	-2.266552
857.297000	0.357631
857.502000	-0.033872
857.708000	-1.177130
857.913000	-0.159251
858.118000	-0.576060
858.323000	-0.976202
858.529000	-0.956609
858.734000	-1.339996
858.939000	-0.798366
859.144000	-1.512722
859.350000	-2.899944
859.555000	-2.817476
859.760000	-0.568777
859.965000	0.388275
860.171000	-1.365762
860.376000	-0.313637
860.581000	-2.473008
860.786000	-4.968659
860.991000	-3.958104
861.197000	-2.792803
861.402000	-0.976240
861.607000	-1.315660
861.812000	-2.285376
862.018000	-2.521850
862.223000	-1.975272
862.428000	-1.126365
862.633000	0.059309
862.839000	-0.864415
863.044000	-1.492856
863.249000	-2.476180
863.454000	-0.695724
863.659000	-0.892219
863.865000	-1.951544
864.070000	-2.720526
864.275000	-3.097838
864.480000	-2.126574
864.686000	-3.618048
864.891000	-3.106313
865.096000	-1.191346
865.301000	-0.336751
865.507000	0.002004
865.712000	0.142298
865.917000	-1.127550
866.122000	-0.544071
866.328000	-3.455832
866.533000	-2.924939
866.738000	0.286965
866.943000	0.144805
867.148000	0.966005
867.354000	-1.734267
867.559000	-3.512958
867.764000	-1.930246
867.969000	-0.603520
868.175000	-1.975113
868.380000	-2.629493
868.585000	-3.636731
868.790000	-0.900255
868.996000	-1.223060
869.201000	-2.941762
869.406000	-3.507479
869.611000	-2.575223
869.817000	-2.529807
870.022000	1.668007
870.227000	-0.319005
870.432000	-2.299971
870.637000	-0.794818
870.843000	-1.146074
871.048000	-1.189979
871.253000	0.696182
871.458000	-0.826145
871.664000	-3.419914
871.869000	-3.528385
872.074000	-2.720105
872.279000	-1.081766
872.485000	-1.355912
872.690000	-1.786652
872.895000	-2.198199
873.100000	-2.740319
873.306000	-2.842273
873.511000	-1.861827
873.716000	-0.111636
873.921000	-1.861038
874.126000	-2.205392
874.332000	-1.606561
874.537000	-0.159372
874.742000	0.048348
874.947000	-0.321375
875.153000	1.145867
875.358000	-0.722817
875.563000	-1.586853
875.768000	-4.198518
875.974000	-4.781330
876.179000	-1.012908
876.384000	-0.306061
876.589000	-2.463491
876.794000	-2.370423
877.000000	-2.876119
877.205000	-3.854721
877.410000	-1.586556
877.615000	-3.001908
877.821000	-5.283562
878.026000	-3.151318
878.231000	-3.271874
878.436000	-3.981916
878.642000	-2.859695
878.847000	-1.223408
879.052000	-0.070999
879.257000	-2.467040
879.463000	-3.756364
879.668000	-2.594880
879.873000	-0.345209
880.078000	-2.935237
880.283000	-4.546214
880.489000	-4.721062
880.694000	-4.289758
880.899000	-2.349472
881.104000	-0.987789
881.310000	1.221374
881.515000	0.078626
881.720000	0.841542
881.925000	2.150234
882.131000	4.298181
882.336000	1.007447
882.541000	-2.750069
882.746000	-2.685344
882.952000	-4.141935
883.157000	-3.760181
883.362000	-3.687446
883.567000	-4.228486
883.772000	-4.055552
883.978000	-3.263395
884.183000	-1.540927
884.388000	-2.041802
884.593000	-3.875411
884.799000	0.616329
885.004000	-0.051410
885.209000	-1.946291
885.414000	-1.319157
885.620000	-3.692643
885.825000	-0.599338
886.030000	-0.980555
886.235000	-2.498047
886.440000	-2.047777
886.646000	-4.556775
886.851000	-4.747345
887.056000	-0.165386
887.261000	-0.418004
887.467000	-3.687211
887.672000	-1.358448
887.877000	-2.534072
888.082000	-4.951995
888.288000	-5.048071
888.493000	-7.110581
888.698000	-5.942236
888.903000	-2.427556
889.109000	-3.750733
889.314000	-0.719371
889.519000	-2.242007
889.724000	0.089348
889.929000	-1.439896
890.135000	-1.414836
890.340000	-1.716887
890.545000	-3.843025
890.750000	-5.223921
890.956000	-3.131896
891.161000	-0.289626
891.366000	-2.842833
891.571000	-1.761459
891.777000	-1.704234
891.982000	0.446626
892.187000	-0.442599
892.392000	-0.323010
892.598000	-0.265248
892.803000	-0.387859
893.008000	-2.970642
893.213000	-2.992753
893.418000	-2.863003
893.624000	-3.059287
893.829000	-5.214263
894.034000	-2.580771
894.239000	-1.249385
894.445000	-4.934156
894.650000	-4.132011
894.855000	-3.217113
895.060000	-3.854705
895.266000	-3.540394
895.471000	-4.621570
895.676000	-1.358207
895.881000	-0.340134
896.087000	-3.149190
896.292000	-4.300582
896.497000	0.066293
896.702000	-1.380293
896.907000	-3.051408
897.113000	1.299032
897.318000	1.235194
897.523000	0.573298
897.728000	-1.968162
897.934000	-2.849233
898.139000	-3.588047
898.344000	-0.959174
898.549000	-1.545355
898.755000	-3.227549
898.960000	-3.962640
899.165000	-5.427908
899.370000	-1.499060
899.575000	1.705890
899.781000	-3.181768
899.986000	-3.937191
900.191000	-1.913424
900.396000	-2.544268
900.602000	-2.526258
900.807000	-2.443554
901.012000	-1.953405
901.217000	-0.098082
901.423000	-2.659355
901.628000	-3.615168
901.833000	0.785092
902.038000	-0.304832
902.244000	-3.651365
902.449000	-3.123139
902.654000	-3.121335
902.859000	-1.624559
903.064000	0.351529
903.270000	0.178143
903.475000	-3.632010
903.680000	-6.945811
903.885000	-6.402787
904.091000	-4.100613
904.296000	-5.324637
904.501000	-5.381428
904.706000	-4.396989
904.912000	0.509901
905.117000	-1.448958
905.322000	-3.986778
905.527000	-4.150488
905.733000	-3.934433
905.938000	-3.812288
906.143000	-4.118029
906.348000	-6.128114
906.553000	-0.744841
906.759000	0.340393
906.964000	-1.838223
907.169000	-3.020477
907.374000	-6.182103
907.580000	-5.191196
907.785000	-4.277753
907.990000	24.831026
908.195000	16.647733
908.401000	-0.853854
908.606000	-7.993491
908.811000	-9.943749
909.016000	-2.342820
909.221000	-2.075585
909.427000	-3.350104
909.632000	-4.573695
909.837000	-4.004319
910.042000	-5.704293
910.248000	-7.994957
910.453000	-3.649355
910.658000	-4.249816
910.863000	-3.714202
911.069000	-5.204068
911.274000	-1.689594
911.479000	0.211979
911.684000	-6.391125
911.890000	-2.798358
912.095000	-3.136852
912.300000	-6.196123
912.506000	-5.903975
912.711000	-5.678455
912.917000	-2.518883
913.123000	-2.307115
913.328000	-3.053528
913.534000	-3.038075
913.740000	6.394510
913.946000	2.379696
914.151000	-5.168118
914.357000	-6.165263
914.563000	-1.888701
914.768000	-4.920785
914.974000	-8.022049
915.180000	-7.420923
915.385000	-5.495940
915.591000	-8.617508
915.797000	-3.308293
916.002000	1.069921
916.208000	-2.254707
916.414000	-4.843288
916.620000	-6.021511
916.825000	-2.713248
917.031000	-3.653247
917.237000	-9.788213
917.442000	-5.706009
917.648000	-6.086533
917.854000	-7.089077
918.059000	0.004826
918.265000	0.631430
918.471000	-2.901845
918.676000	-7.143597
918.882000	-9.408586
919.088000	-7.006405
919.294000	-11.687713
919.499000	-8.011007
919.705000	-1.153539
919.911000	-3.369799
920.116000	-0.808910
920.322000	-6.892185
920.528000	-6.261323
920.733000	-9.577773
920.939000	-10.558603
921.145000	-7.664915
921.350000	-6.970498
921.556000	-5.322821
921.762000	-4.352799
921.968000	-5.324610
922.173000	-6.809014
922.379000	-9.523220
922.585000	-5.501139
922.790000	-6.603234
922.996000	-8.030732
923.202000	-8.517745
923.407000	-8.122609
923.613000	-5.046270
923.819000	-2.586633
924.024000	-4.194840
924.230000	-1.346986
924.436000	-4.871885
924.642000	5.173652
924.847000	1.920363
925.053000	-5.963704
925.259000	-10.730715
925.464000	-4.316797
925.670000	-6.356136
925.876000	-8.316685
926.081000	-7.530492
926.287000	-3.443314
926.493000	-2.475227
926.698000	-4.297953
926.904000	-2.283406
927.110000	-4.963916
927.316000	-5.958697
927.521000	1.543286
927.727000	-4.362460
927.933000	-6.324485
928.138000	-5.156016
928.344000	-12.794481
928.550000	-7.328318
928.755000	-1.541846
928.961000	-6.882693
929.167000	-6.924651
929.372000	0.721877
929.578000	-0.387233
929.784000	-6.406360
929.990000	-10.022369
930.195000	-9.049996
930.401000	-6.433806
930.607000	-3.624798
930.812000	-3.524410
931.018000	-7.834952
931.224000	-14.297374
931.429000	-9.225151
931.635000	-11.490909
931.841000	-11.953041
932.046000	-7.710182
932.252000	-2.955587
932.458000	2.640654
932.664000	-1.504337
932.869000	-6.693732
933.075000	-9.931244
933.281000	-8.601062
933.486000	-1.781677
933.692000	-4.934801
933.898000	-9.359384
934.103000	-2.937659
934.309000	-5.081209
934.515000	-2.029846
934.720000	-2.272746
934.926000	1.118148
935.132000	0.642857
935.338000	-3.361428
935.543000	-10.733485
935.749000	-11.655553
935.955000	-13.772110
936.160000	-11.177053
936.366000	-3.100012
936.572000	-3.418105
936.777000	-3.225804
936.983000	-1.480870
937.189000	-4.671735
937.394000	-9.836723
937.600000	-1.789441
937.806000	3.269816
938.012000	-5.511211
938.217000	2.697342
938.423000	-1.764378
938.629000	-7.086546
938.834000	-12.497313
939.040000	-13.632455
939.246000	-8.326738
939.451000	-9.887126
939.657000	-7.339227
939.863000	-10.722285
940.068000	-3.000062
940.274000	-8.677840
940.480000	-3.265492
940.686000	-0.927704
940.891000	-4.537491
941.097000	21.132113
941.303000	8.869578
941.508000	-6.354289
941.714000	-4.788970
941.920000	-16.845977
942.125000	-7.157119
942.331000	-4.244434
942.537000	2.409537
942.742000	1.883335
942.948000	-8.580878
943.154000	-14.401380
943.360000	-29.585717
943.565000	-13.358181
943.771000	-0.215492
943.977000	3.165236
944.182000	-15.619157
944.388000	-15.235210
944.594000	-0.675239
944.799000	7.526100
945.005000	-0.215978
945.211000	3.089668
945.416000	-1.956494
945.622000	-15.308671
945.828000	-11.133189
946.034000	-0.107310
946.239000	0.851281
946.445000	-7.425261
946.651000	-16.789885
946.856000	-12.120971
947.062000	1.430370
947.268000	0.130945
947.473000	-18.155827
947.679000	-21.873948
947.885000	-4.089219
948.090000	0.254870
948.296000	11.613795
948.502000	1.593516
948.708000	-7.472707
948.913000	-12.403782
949.119000	-1.973451
949.325000	-6.321536
949.530000	-21.487422
949.736000	-26.615086
949.942000	-16.765137
950.147000	-15.520277
950.353000	-12.677968
950.559000	-9.234187
950.764000	11.833991
950.970000	3.896388
951.176000	-9.999753
951.382000	-15.589492
951.587000	-5.720161
951.793000	2.374016
951.999000	4.796894
952.204000	-10.301209
952.410000	-23.537299
952.616000	-8.460872
952.821000	-6.448218
953.027000	-16.685769
953.233000	-19.752912
953.438000	-18.302545
953.644000	1.472608
953.850000	-4.765940
954.056000	-10.719440
954.261000	-7.816179
954.467000	0.554774
954.673000	6.629859
954.878000	-4.999643
955.084000	-7.312024
955.290000	-22.324168
955.495000	-26.487543
955.701000	-20.967264
955.907000	1.401224
956.112000	1.262619
956.318000	11.840084
956.524000	8.916292
956.730000	-8.604416
956.935000	-11.606461
957.141000	-14.905654
957.347000	-2.985033
957.552000	-6.263443
957.758000	-22.829440
957.964000	-31.859022
958.169000	6.680945
958.375000	3.648832
958.581000	-14.155335
958.786000	-22.773807
958.992000	-30.988509
959.198000	-9.244351
959.404000	-6.235271
959.609000	-15.157914
959.815000	-15.157002
960.021000	5.167397
960.226000	-3.042275
960.432000	-29.747372
960.638000	-21.563512
960.843000	-14.550932
961.049000	-17.384376
961.255000	-2.806378
961.460000	-15.775177
961.666000	-31.815684
961.872000	-16.068344
962.078000	-13.964739
962.283000	-27.118695
962.489000	-31.751670
962.695000	-20.106095
962.900000	-12.806218
963.106000	-11.632254
963.312000	-14.442556
963.517000	-17.554628
963.723000	-22.842569
963.929000	0.859494
964.134000	8.594936
964.340000	-18.691771
964.546000	-21.410106
964.752000	-24.305994
964.957000	-30.257242
965.163000	-5.419104
965.369000	-7.977721
965.574000	-1.777180
965.780000	-6.988891
966.000000	-17.063911
966.220000	-12.643858
966.440000	-11.256026
966.661000	-1.445240
966.881000	-23.103168
967.101000	-42.846494
967.321000	-43.177611
967.541000	-10.392742
967.761000	-14.838641
967.981000	-10.881742
968.202000	-13.446985
968.422000	0.212462
968.642000	1.367126
968.862000	-6.074237
969.082000	-18.000033
969.302000	-7.749303
969.522000	-12.640738
969.743000	2.563633
969.963000	-18.781147
970.183000	-29.153855
970.403000	-26.269762
970.623000	-22.076151
970.843000	1.880348
971.063000	-0.398659
971.284000	-22.354999
971.504000	-35.917715
971.724000	-13.488098
971.944000	-27.451009
972.164000	-34.812749
972.384000	-27.168535
972.604000	-44.192368
972.825000	-49.142149
973.045000	-30.106534
973.265000	24.963066
973.485000	11.363087
973.705000	-4.538788
973.925000	-12.247944
974.145000	-52.568237
974.365000	-18.235385
974.586000	-15.002962
974.806000	-33.565804
975.026000	-0.933949
975.246000	-15.819777
975.466000	-30.236618
975.686000	-15.706805
975.906000	-20.255361
976.127000	-46.447613
976.347000	-40.269556
976.567000	-1.967004
976.787000	-6.968202
977.007000	-22.435498
977.227000	-26.497082
977.447000	-28.575497
977.668000	-48.451172
977.888000	-31.585434
978.108000	-32.797624
978.328000	-22.561764
978.548000	4.264334
978.768000	4.074020
978.988000	-5.609042
979.209000	-17.087415
979.429000	-15.774762
979.649000	-4.938052
979.869000	-30.314606
980.089000	-47.392146
980.309000	-51.914755
980.529000	-61.197752
980.750000	-38.872589
980.970000	-44.740032
981.190000	-28.421498
981.410000	-26.379030
981.630000	-36.249477
981.850000	-18.160768
982.070000	-12.986410
982.291000	-51.839388
982.511000	-48.348910
982.731000	-4.488678
982.951000	-27.885203
983.171000	-37.258612
983.391000	-28.744139
983.611000	4.947210
983.832000	-21.390851
984.052000	-48.155967
984.272000	-24.430710
984.492000	-22.053898
984.712000	-35.843019
984.932000	-57.061632
985.152000	-62.733628
985.373000	-45.597277
985.593000	-17.307082
985.813000	-28.231482
986.033000	-35.046501
986.253000	-1.455546
986.473000	0.035489
986.693000	-36.505063
986.914000	-47.767937
987.134000	0.803095
987.354000	-34.976363
987.574000	196.739028
987.794000	116.437759
988.014000	-46.204631
988.234000	-33.499280
988.455000	-13.591847
988.675000	-16.151057
988.895000	-30.893746
989.115000	-45.192822
989.335000	-25.758289
989.555000	2.997615
989.775000	-38.540307
989.995000	-32.197250
990.216000	-26.733588
990.436000	-25.039202
990.656000	5.534342
990.876000	-32.943882
991.096000	-16.386548
991.316000	23.559658
991.536000	-5.186372
991.757000	-23.926173
991.977000	-75.184230
992.197000	-9.131528
992.417000	-37.380779
992.637000	-93.030060
992.857000	-95.120372
993.077000	-84.407596
993.298000	-33.889455
993.518000	-33.663443
993.738000	-83.898862
993.958000	-40.065193
994.178000	-42.273332
994.398000	-39.065928
994.618000	-80.730772
994.839000	-128.257153
995.059000	-37.858756
995.279000	33.909836
995.499000	-16.119159
995.719000	-21.653597
995.939000	-28.951688
996.159000	-29.131788
996.380000	-37.472097
996.600000	-89.054617
996.820000	-35.157554
997.040000	6.132429
997.260000	-53.452384
997.480000	-31.538863
997.700000	-105.828928
997.921000	-69.975524
998.141000	31.922023
998.361000	0.680663
998.581000	-53.971263
998.801000	-96.204938
999.021000	-71.858493
999.241000	-43.593008
999.462000	-67.239009
999.682000	-126.441560
999.902000	-81.081459
1000.122000	-83.713208
1000.342000	-141.249490
1000.562000	-73.865477
1000.782000	-54.781407
1001.003000	-1003.794995
