Wavelength	Irradiance
(nm)	(mW/cm2/nm)

294.396000	0.000000
294.577000	0.000000
294.757000	0.000000
294.938000	-0.000000
295.118000	0.000000
295.299000	0.000000
295.479000	0.000000
295.660000	-0.000000
295.840000	-0.000000
296.021000	-0.000000
296.202000	0.000000
296.382000	-0.000000
296.563000	-0.000000
296.743000	-0.000000
296.924000	0.000000
297.104000	0.000000
297.285000	-0.000000
297.465000	-0.000000
297.646000	-0.000000
297.826000	0.000000
298.007000	0.000000
298.187000	0.000000
298.368000	-0.000000
298.548000	0.000000
298.729000	0.000000
298.909000	0.000000
299.090000	-0.000000
299.270000	-0.000000
299.451000	-0.000000
299.631000	-0.000000
299.812000	-0.000000
299.992000	0.000000
300.173000	0.000000
300.353000	0.000000
300.534000	0.000000
300.714000	0.000000
300.895000	0.000000
301.075000	-0.000000
301.256000	0.000000
301.436000	-0.000000
301.617000	0.000000
301.797000	-0.000000
301.978000	0.000000
302.159000	0.000000
302.339000	0.000000
302.520000	-0.000000
302.700000	-0.000000
302.881000	0.000000
303.061000	0.000000
303.242000	0.000000
303.422000	0.000000
303.603000	0.000000
303.783000	-0.000000
303.964000	0.000000
304.144000	0.000000
304.325000	0.000000
304.505000	0.000000
304.686000	0.000000
304.866000	0.000000
305.047000	0.000000
305.227000	-0.000000
305.408000	-0.000000
305.588000	-0.000000
305.769000	-0.000000
305.949000	-0.000000
306.130000	-0.000000
306.310000	-0.000000
306.491000	-0.000000
306.671000	0.000000
306.852000	-0.000000
307.032000	-0.000000
307.213000	0.000000
307.393000	-0.000000
307.574000	0.000000
307.755000	0.000000
307.935000	0.000000
308.116000	0.000000
308.296000	-0.000000
308.477000	0.000000
308.657000	0.000000
308.838000	0.000000
309.018000	0.000000
309.199000	0.000000
309.379000	0.000000
309.560000	0.000000
309.740000	-0.000000
309.921000	0.000000
310.101000	0.000000
310.282000	-0.000000
310.462000	-0.000000
310.643000	-0.000000
310.823000	-0.000000
311.004000	0.000000
311.184000	-0.000000
311.365000	0.000000
311.545000	0.000000
311.726000	0.000000
311.906000	0.000000
312.087000	0.000000
312.267000	-0.000000
312.448000	-0.000000
312.628000	-0.000000
312.809000	0.000000
312.989000	-0.000000
313.170000	-0.000000
313.344000	-0.000000
313.518000	-0.000000
313.691000	-0.000000
313.865000	-0.000000
314.039000	-0.000000
314.213000	-0.000000
314.387000	-0.000000
314.560000	-0.000000
314.734000	-0.000000
314.908000	-0.000000
315.082000	-0.000000
315.255000	0.000000
315.429000	0.000000
315.603000	0.000000
315.777000	-0.000000
315.951000	0.000000
316.124000	-0.000000
316.298000	-0.000000
316.472000	-0.000000
316.646000	-0.000000
316.820000	-0.000000
316.993000	0.000000
317.167000	-0.000000
317.341000	-0.000000
317.515000	0.000000
317.688000	-0.000000
317.862000	-0.000000
318.036000	-0.000000
318.210000	-0.000000
318.384000	-0.000000
318.557000	-0.000000
318.731000	-0.000000
318.905000	0.000000
319.079000	0.000000
319.253000	0.000000
319.426000	0.000000
319.600000	0.000000
319.774000	-0.000000
319.948000	-0.000000
320.122000	0.000000
320.295000	0.000000
320.469000	-0.000000
320.643000	-0.000000
320.817000	-0.000000
320.990000	-0.000000
321.164000	-0.000000
321.338000	-0.000000
321.512000	-0.000000
321.686000	-0.000000
321.859000	-0.000000
322.033000	0.000000
322.207000	0.000000
322.381000	-0.000000
322.555000	0.000000
322.728000	0.000000
322.902000	-0.000000
323.076000	-0.000000
323.250000	-0.000000
323.423000	-0.000000
323.597000	-0.000000
323.771000	-0.000000
323.945000	-0.000000
324.119000	-0.000000
324.292000	0.000000
324.466000	-0.000000
324.640000	0.000000
324.814000	0.000000
324.988000	0.000000
325.161000	-0.000000
325.335000	-0.000000
325.509000	-0.000000
325.683000	0.000000
325.856000	-0.000000
326.030000	-0.000000
326.204000	0.000000
326.378000	0.000000
326.552000	0.000000
326.725000	-0.000000
326.899000	-0.000000
327.073000	-0.000000
327.247000	0.000000
327.421000	0.000000
327.594000	0.000000
327.768000	0.000000
327.942000	0.000000
328.116000	0.000000
328.289000	0.000000
328.463000	0.000000
328.637000	0.000000
328.811000	-0.000000
328.985000	-0.000000
329.158000	-0.000000
329.332000	-0.000000
329.506000	0.000000
329.680000	0.000000
329.854000	0.000000
330.027000	0.000000
330.201000	0.000000
330.375000	0.000000
330.549000	0.000000
330.723000	-0.000000
330.896000	-0.000000
331.070000	-0.000000
331.244000	0.000000
331.418000	-0.000000
331.591000	0.000000
331.765000	-0.000000
331.939000	-0.000000
332.113000	-0.000000
332.287000	-0.000000
332.460000	0.000000
332.634000	0.000000
332.808000	-0.000000
332.982000	-0.000000
333.156000	-0.000000
333.329000	0.000000
333.503000	-0.000000
333.677000	-0.000000
333.851000	-0.000000
334.024000	0.000000
334.198000	0.000000
334.372000	-0.000000
334.546000	-0.000000
334.720000	0.000000
334.893000	-0.000000
335.067000	0.000000
335.241000	0.000000
335.415000	0.000000
335.589000	-0.000000
335.762000	-0.000000
335.936000	-0.000000
336.110000	-0.000000
336.284000	-0.000000
336.458000	0.000000
336.631000	-0.000000
336.805000	-0.000000
336.979000	-0.000000
337.153000	-0.000000
337.326000	-0.000000
337.500000	0.000000
337.674000	0.000000
337.848000	0.000000
338.022000	0.000000
338.195000	0.000000
338.369000	-0.000000
338.543000	-0.000000
338.717000	-0.000000
338.891000	0.000000
339.064000	0.000000
339.238000	-0.000000
339.412000	-0.000000
339.586000	-0.000000
339.759000	-0.000000
339.933000	-0.000000
340.107000	0.000000
340.281000	0.000000
340.455000	-0.000000
340.628000	-0.000000
340.802000	-0.000000
340.976000	0.000000
341.150000	0.000000
341.324000	0.000000
341.497000	-0.000000
341.671000	-0.000000
341.845000	-0.000000
342.019000	-0.000000
342.192000	-0.000000
342.366000	-0.000000
342.540000	0.000000
342.714000	-0.000000
342.888000	-0.000000
343.061000	-0.000000
343.235000	-0.000000
343.409000	-0.000000
343.583000	-0.000000
343.757000	0.000000
343.930000	-0.000000
344.104000	-0.000000
344.278000	0.000000
344.452000	0.000000
344.626000	-0.000000
344.799000	-0.000000
344.973000	-0.000000
345.147000	-0.000000
345.321000	-0.000000
345.494000	-0.000000
345.668000	0.000000
345.842000	0.000000
346.016000	-0.000000
346.190000	0.000000
346.363000	0.000000
346.537000	0.000000
346.711000	0.000000
346.885000	-0.000000
347.059000	-0.000000
347.232000	0.000000
347.406000	0.000000
347.580000	-0.000000
347.754000	-0.000000
347.927000	0.000000
348.101000	0.000000
348.275000	-0.000000
348.449000	-0.000000
348.623000	-0.000000
348.796000	0.000000
348.970000	0.000000
349.144000	0.000000
349.318000	0.000000
349.492000	0.000000
349.665000	-0.000000
349.839000	-0.000000
350.013000	-0.000000
350.187000	-0.000000
350.361000	-0.000000
350.534000	0.000000
350.708000	0.000000
350.882000	0.000000
351.056000	0.000000
351.229000	0.000000
351.403000	-0.000000
351.577000	-0.000000
351.751000	-0.000000
351.925000	-0.000000
352.098000	-0.000000
352.272000	0.000000
352.446000	0.000000
352.620000	-0.000000
352.794000	-0.000000
352.967000	0.000000
353.141000	0.000000
353.315000	0.000000
353.489000	-0.000000
353.662000	-0.000000
353.836000	0.000000
354.010000	0.000000
354.184000	0.000000
354.358000	-0.000000
354.531000	-0.000000
354.705000	-0.000000
354.879000	0.000000
355.053000	-0.000000
355.227000	0.000000
355.400000	-0.000000
355.574000	0.000000
355.748000	0.000000
355.922000	-0.000000
356.095000	-0.000000
356.269000	0.000000
356.443000	-0.000000
356.617000	-0.000000
356.791000	-0.000000
356.964000	0.000000
357.138000	0.000000
357.312000	0.000000
357.486000	-0.000000
357.660000	0.000000
357.833000	0.000000
358.007000	-0.000000
358.181000	-0.000000
358.355000	-0.000000
358.529000	-0.000000
358.702000	-0.000000
358.876000	-0.000000
359.050000	-0.000000
359.224000	-0.000000
359.397000	0.000000
359.571000	0.000000
359.745000	0.000000
359.919000	0.000000
360.093000	0.169935
360.266000	0.300013
360.440000	0.323397
360.614000	0.235393
360.788000	0.144313
360.962000	-0.038668
361.135000	0.037059
361.309000	-0.155135
361.483000	-0.221761
361.657000	-0.120551
361.830000	-0.030410
362.004000	0.098830
362.178000	-0.319961
362.352000	-0.188159
362.526000	0.053263
362.699000	0.024970
362.873000	-0.284391
363.047000	-0.309222
363.221000	-0.268767
363.395000	-0.089089
363.568000	-0.046459
363.742000	-0.138191
363.916000	-0.072435
364.090000	-0.162437
364.263000	-0.188866
364.437000	-0.298006
364.611000	0.031539
364.785000	0.077873
364.959000	-0.053202
365.132000	-0.047822
365.306000	-0.135027
365.480000	-0.028579
365.656000	-0.083582
365.831000	-0.045199
366.007000	0.006868
366.183000	0.027494
366.358000	-0.151216
366.534000	-0.107131
366.710000	-0.220149
366.886000	-0.055907
367.061000	0.126358
367.237000	0.115117
367.413000	-0.055324
367.588000	-0.283740
367.764000	-0.213298
367.940000	-0.201722
368.115000	-0.118902
368.291000	-0.218746
368.467000	-0.185357
368.643000	0.221612
368.818000	-0.099015
368.994000	-0.219268
369.170000	-0.153273
369.345000	-0.124173
369.521000	-0.047204
369.697000	0.099662
369.872000	0.044632
370.048000	-0.198242
370.224000	-0.293494
370.399000	-0.408098
370.575000	-0.322365
370.751000	-0.375330
370.927000	-0.220634
371.102000	-0.201140
371.278000	-0.227402
371.454000	-0.121791
371.629000	0.294141
371.805000	0.191033
371.981000	0.269964
372.156000	0.387702
372.332000	0.193211
372.508000	0.147850
372.683000	0.146972
372.859000	-0.009217
373.035000	-0.047677
373.211000	0.370072
373.386000	0.166222
373.562000	-0.249778
373.738000	-0.353352
373.913000	-0.466017
374.089000	-0.336425
374.265000	0.050916
374.440000	0.172882
374.616000	0.249667
374.792000	-0.035924
374.968000	0.372107
375.143000	0.071890
375.319000	-0.261268
375.495000	-0.268525
375.670000	-0.116878
375.846000	0.115702
376.022000	-0.014820
376.197000	0.017964
376.373000	-0.217870
376.549000	-0.281139
376.724000	-0.318451
376.900000	-0.206070
377.076000	-0.196079
377.252000	0.132508
377.427000	0.328355
377.603000	-0.030412
377.779000	0.065649
377.954000	-0.082522
378.130000	0.012061
378.306000	-0.093715
378.481000	-0.109148
378.657000	-0.218759
378.833000	-0.207917
379.009000	-0.019650
379.184000	0.096748
379.360000	0.012053
379.536000	0.080844
379.711000	0.055329
379.887000	-0.083097
380.063000	-0.129344
380.238000	-0.267364
380.414000	0.080224
380.590000	-0.210181
380.765000	-0.183141
380.941000	0.105944
381.117000	0.068969
381.293000	0.058460
381.468000	-0.172405
381.644000	-0.200937
381.820000	-0.014031
381.995000	0.064546
382.171000	0.281019
382.347000	0.375468
382.522000	-0.076976
382.698000	0.199547
382.874000	0.344914
383.050000	-0.014139
383.225000	0.278674
383.401000	0.431711
383.577000	0.112524
383.752000	-0.127969
383.928000	-0.122512
384.104000	-0.046100
384.279000	-0.083258
384.455000	0.089151
384.631000	-0.019095
384.806000	-0.281055
384.982000	-0.019117
385.158000	-0.081819
385.334000	0.063120
385.509000	0.022158
385.685000	-0.160691
385.861000	-0.019369
386.036000	-0.210119
386.212000	-0.403443
386.388000	-0.105965
386.563000	-0.075108
386.739000	-0.101719
386.915000	-0.360756
387.090000	-0.107568
387.266000	0.193157
387.442000	0.317142
387.618000	0.170919
387.793000	-0.122691
387.969000	-0.427905
388.145000	-0.359607
388.320000	-0.257394
388.496000	-0.171441
388.672000	-0.432628
388.847000	0.057720
389.023000	0.078656
389.199000	-0.163817
389.375000	0.016810
389.550000	-0.180478
389.726000	-0.059298
389.902000	-0.179873
390.077000	-0.013530
390.253000	0.037214
390.429000	-0.121526
390.604000	-0.039210
390.780000	0.123125
390.956000	-0.078935
391.131000	-0.154056
391.307000	0.252589
391.483000	-0.003514
391.659000	-0.210008
391.834000	0.051650
392.010000	-0.083630
392.186000	-0.239120
392.361000	-0.164279
392.537000	-0.277135
392.713000	0.189163
392.888000	0.431813
393.064000	0.115662
393.240000	-0.057933
393.416000	-0.082182
393.591000	-0.107558
393.767000	-0.267014
393.943000	-0.194924
394.118000	0.235832
394.294000	0.362542
394.470000	0.176668
394.645000	0.244027
394.821000	0.469902
394.997000	0.146929
395.172000	0.054507
395.348000	-0.066213
395.524000	-0.228421
395.700000	-0.159109
395.875000	0.049318
396.051000	0.044472
396.227000	-0.162352
396.402000	-0.197116
396.578000	0.015942
396.754000	-0.195546
396.929000	-0.118143
397.105000	0.053968
397.281000	0.106470
397.457000	0.006189
397.632000	-0.083374
397.808000	-0.268780
397.984000	-0.431206
398.159000	-0.322425
398.335000	-0.131632
398.511000	0.342939
398.686000	0.157786
398.862000	-0.144484
399.038000	-0.341267
399.213000	-0.026631
399.389000	-0.233899
399.565000	-0.012671
399.741000	0.277984
399.916000	0.228605
400.092000	0.411174
400.268000	0.080811
400.443000	-0.026943
400.619000	0.326959
400.795000	0.252395
400.970000	0.034111
401.146000	-0.129941
401.322000	0.176157
401.497000	0.652669
401.673000	0.395137
401.849000	-0.031676
402.025000	0.156771
402.200000	0.118784
402.376000	-0.087758
402.552000	0.335991
402.727000	0.137426
402.903000	-0.110926
403.079000	-0.082899
403.254000	0.217036
403.430000	0.192306
403.606000	0.080687
403.782000	0.145800
403.957000	-0.087355
404.133000	-0.288970
404.309000	-0.031370
404.484000	0.197343
404.660000	0.085614
404.841000	-0.026683
405.023000	0.299356
405.204000	0.248878
405.385000	-0.111171
405.566000	-0.134020
405.748000	0.053318
405.929000	0.276454
406.110000	0.217014
406.292000	0.154523
406.473000	0.215378
406.654000	-0.111124
406.835000	0.118220
407.017000	0.192255
407.198000	0.185507
407.379000	0.171224
407.560000	0.075059
407.742000	0.024595
407.923000	0.122724
408.104000	0.001393
408.286000	0.135798
408.467000	0.158578
408.648000	0.043129
408.829000	0.038356
409.011000	0.135571
409.192000	-0.114733
409.373000	0.145194
409.555000	0.261209
409.736000	0.273283
409.917000	0.209541
410.098000	0.281674
410.280000	0.348061
410.461000	0.224494
410.642000	0.297902
410.823000	0.566855
411.005000	0.512783
411.186000	0.307510
411.367000	0.271190
411.549000	0.284704
411.730000	0.380564
411.911000	0.530431
412.092000	0.460640
412.274000	0.375935
412.455000	0.467161
412.636000	0.499273
412.818000	0.343999
412.999000	0.220766
413.180000	0.244625
413.361000	0.326929
413.543000	0.262215
413.724000	0.283974
413.905000	0.319874
414.087000	0.280081
414.268000	0.259226
414.449000	0.299803
414.630000	0.207056
414.812000	0.166469
414.993000	0.558833
415.174000	0.767157
415.355000	0.562552
415.537000	0.360516
415.718000	0.605028
415.899000	0.452751
416.081000	0.367146
416.262000	0.669885
416.443000	0.532195
416.624000	0.618510
416.806000	0.808286
416.987000	0.922329
417.168000	0.820437
417.350000	0.658211
417.531000	0.649901
417.712000	0.719492
417.893000	0.971586
418.075000	1.154342
418.256000	0.962060
418.437000	1.053231
418.618000	1.140768
418.800000	1.225823
418.981000	1.008021
419.162000	1.001532
419.344000	1.232799
419.525000	1.109129
419.706000	1.032071
419.887000	1.286091
420.069000	1.588254
420.250000	1.505471
420.431000	1.398032
420.613000	1.291692
420.794000	1.128725
420.975000	1.616783
421.156000	1.473148
421.338000	1.359818
421.519000	1.501833
421.700000	1.476014
421.882000	1.436837
422.063000	1.601533
422.244000	2.134169
422.425000	1.913999
422.607000	1.581436
422.788000	1.656426
422.969000	1.507280
423.150000	1.509028
423.332000	1.521860
423.513000	1.772332
423.694000	1.941916
423.876000	2.052632
424.057000	2.113421
424.238000	2.225409
424.419000	2.331890
424.601000	2.196831
424.782000	2.298847
424.963000	2.469283
425.145000	2.393970
425.326000	2.508402
425.507000	2.496118
425.688000	2.392279
425.870000	2.371481
426.051000	2.299313
426.232000	2.415305
426.413000	2.581005
426.595000	2.619160
426.776000	2.635168
426.957000	2.849683
427.139000	2.958144
427.320000	3.001483
427.501000	3.113000
427.682000	3.158248
427.864000	3.242786
428.045000	3.468688
428.226000	3.481100
428.408000	3.204354
428.589000	3.450038
428.770000	3.541383
428.951000	3.509548
429.133000	3.469042
429.314000	3.644174
429.495000	3.721777
429.677000	3.812120
429.858000	3.841994
430.039000	4.104288
430.220000	4.294079
430.402000	4.383455
430.583000	4.209085
430.764000	4.329176
430.945000	4.568995
431.127000	4.685289
431.308000	4.693437
431.489000	5.000480
431.671000	5.183446
431.852000	5.114802
432.033000	5.089880
432.214000	5.185887
432.396000	5.413198
432.577000	5.344631
432.758000	5.422540
432.940000	5.658665
433.121000	5.669627
433.302000	5.942417
433.483000	6.238498
433.665000	6.419074
433.846000	6.367171
434.027000	6.385992
434.208000	6.448799
434.390000	6.665888
434.571000	7.215222
434.752000	7.575094
434.934000	7.259714
435.115000	7.361060
435.296000	7.703898
435.477000	7.693731
435.659000	7.514308
435.840000	7.866551
436.026000	7.904824
436.211000	7.998636
436.397000	7.870334
436.582000	8.164715
436.768000	8.655805
436.953000	8.713336
437.139000	8.913926
437.325000	9.571057
437.510000	9.626356
437.696000	9.830949
437.881000	10.061291
438.067000	9.931533
438.252000	10.372085
438.438000	10.541085
438.624000	10.906274
438.809000	11.216998
438.995000	11.574667
439.180000	11.737682
439.366000	11.796917
439.551000	11.971473
439.737000	12.342909
439.923000	12.826568
440.108000	13.161859
440.294000	13.464792
440.479000	13.731501
440.665000	14.001588
440.850000	14.187922
441.036000	14.617307
441.222000	15.050530
441.407000	15.201743
441.593000	15.939198
441.778000	16.421020
441.964000	16.872030
442.149000	16.923953
442.335000	17.174024
442.521000	17.747646
442.706000	18.308049
442.892000	18.597445
443.077000	19.116325
443.263000	19.724630
443.448000	20.008617
443.634000	20.376765
443.820000	21.101828
444.005000	21.503875
444.191000	21.703882
444.376000	22.035314
444.562000	22.964545
444.747000	23.604217
444.933000	23.882321
445.119000	24.319614
445.304000	24.723155
445.490000	25.425134
445.675000	25.985433
445.861000	26.377069
446.046000	26.918038
446.232000	27.560907
446.418000	27.996715
446.603000	28.534653
446.789000	29.089054
446.974000	29.584411
447.160000	29.757374
447.345000	30.045902
447.531000	30.297298
447.717000	31.093640
447.902000	31.661000
448.088000	32.022159
448.273000	32.024049
448.459000	32.173757
448.644000	32.552801
448.830000	33.004188
449.016000	33.043326
449.201000	33.366220
449.387000	33.707974
449.572000	33.695702
449.758000	33.924697
449.943000	34.287378
450.129000	34.091761
450.315000	34.130552
450.500000	34.369881
450.686000	34.484513
450.871000	34.436473
451.057000	34.443798
451.243000	34.587937
451.428000	34.465080
451.614000	34.078523
451.799000	34.072901
451.985000	34.447018
452.170000	33.974190
452.356000	33.444171
452.542000	33.363149
452.727000	33.115582
452.913000	32.829553
453.098000	32.833573
453.284000	32.832031
453.469000	32.419987
453.655000	32.023504
453.841000	31.585912
454.026000	30.763805
454.212000	30.414509
454.397000	30.237603
454.583000	29.984614
454.768000	29.467765
454.954000	29.203287
455.140000	28.813821
455.325000	28.242980
455.511000	27.887167
455.696000	27.665048
455.882000	27.339041
456.067000	27.315929
456.253000	26.738685
456.439000	26.286019
456.624000	25.856909
456.810000	25.411734
456.995000	25.273167
457.181000	24.732303
457.366000	24.542123
457.552000	24.256322
457.738000	23.994617
457.923000	23.808930
458.109000	23.816904
458.294000	23.314826
458.480000	23.143491
458.665000	22.704175
458.851000	22.361910
459.037000	22.057732
459.222000	22.126460
459.408000	21.565285
459.593000	21.454159
459.779000	21.445045
459.964000	21.419612
460.150000	21.485742
460.336000	21.333900
460.521000	20.886350
460.707000	20.646322
460.892000	20.272725
461.078000	20.469927
461.263000	20.343691
461.449000	20.137996
461.635000	20.199814
461.820000	20.117772
462.006000	19.880140
462.191000	19.666004
462.377000	19.217058
462.562000	19.622598
462.748000	19.692964
462.934000	19.186944
463.119000	18.790553
463.305000	18.856938
463.490000	18.670592
463.676000	18.745306
463.861000	18.636129
464.047000	18.468289
464.233000	18.370606
464.418000	18.229164
464.604000	18.014041
464.789000	18.317281
464.975000	17.996925
465.160000	17.801640
465.346000	17.838665
465.532000	17.473734
465.717000	17.384832
465.903000	17.703095
466.088000	17.516835
466.274000	16.963619
466.459000	16.812826
466.645000	17.204185
466.831000	17.026388
467.016000	16.649882
467.202000	16.504445
467.387000	16.374821
467.573000	16.100125
467.758000	16.312478
467.944000	16.008367
468.130000	15.772962
468.315000	15.658812
468.501000	15.649266
468.686000	15.288275
468.872000	15.286901
469.057000	15.207031
469.243000	15.093048
469.429000	14.939997
469.614000	14.667344
469.800000	14.483548
469.985000	14.317105
470.171000	14.257113
470.356000	14.044410
470.542000	13.976463
470.728000	13.961096
470.913000	13.699007
471.099000	13.591809
471.284000	13.386271
471.470000	13.254365
471.655000	13.223471
471.841000	13.014249
472.027000	12.683637
472.212000	12.763010
472.398000	12.804914
472.583000	12.615234
472.769000	12.602649
472.954000	12.501010
473.140000	12.205777
473.326000	12.041555
473.511000	12.190138
473.697000	12.080288
473.882000	11.972564
474.068000	11.890163
474.253000	11.613302
474.439000	11.680945
474.625000	11.770878
474.810000	11.667918
474.996000	11.569635
475.181000	11.295192
475.367000	11.483254
475.552000	11.706385
475.738000	11.189692
475.924000	11.178835
476.109000	11.439435
476.295000	11.268689
476.480000	11.093454
476.666000	11.034063
476.851000	11.002027
477.037000	11.118776
477.223000	10.963726
477.408000	10.943815
477.594000	10.707641
477.779000	10.745999
477.965000	10.874446
478.151000	10.813158
478.336000	10.941332
478.522000	10.833324
478.707000	10.688094
478.893000	10.798814
479.078000	10.772876
479.264000	10.798680
479.450000	10.799723
479.635000	10.962625
479.821000	10.892934
480.006000	10.976815
480.192000	10.976280
480.377000	11.092431
480.563000	11.134227
480.749000	10.943804
480.934000	10.964997
481.120000	11.114943
481.305000	11.201092
481.491000	11.197398
481.676000	11.354406
481.862000	11.334398
482.048000	11.043318
482.233000	11.026951
482.419000	11.245879
482.604000	11.290315
482.790000	11.231325
482.975000	11.337263
483.161000	11.487285
483.347000	11.491826
483.532000	11.425250
483.718000	11.239233
483.903000	11.324235
484.089000	11.507319
484.274000	11.348049
484.460000	11.439898
484.646000	11.483609
484.831000	11.370096
485.017000	11.528031
485.202000	11.512695
485.388000	11.812742
485.573000	11.805806
485.759000	11.649033
485.945000	11.906929
486.130000	11.721170
486.316000	11.922143
486.501000	12.024493
486.687000	11.779274
486.872000	11.816057
487.058000	12.032945
487.244000	12.040394
487.429000	11.836022
487.615000	12.141284
487.800000	12.390171
487.986000	12.323538
488.171000	12.397596
488.357000	12.290820
488.543000	12.359141
488.728000	12.544145
488.914000	12.513481
489.099000	12.428369
489.285000	12.390426
489.470000	12.613979
489.656000	12.697545
489.842000	12.751605
490.027000	12.914715
490.213000	12.811182
490.398000	12.656574
490.584000	12.904023
490.769000	12.920009
490.955000	13.022477
491.141000	13.108634
491.326000	13.151823
491.512000	13.431821
491.697000	13.347244
491.883000	13.263828
492.068000	13.322596
492.254000	13.435370
492.440000	13.586272
492.625000	13.517373
492.811000	13.553285
492.996000	13.815709
493.182000	13.806307
493.367000	13.750933
493.553000	13.821027
493.739000	13.910612
493.924000	14.033843
494.110000	14.039749
494.295000	14.078637
494.481000	14.381780
494.666000	14.410841
494.852000	14.591773
495.038000	14.517997
495.223000	14.514602
495.409000	14.699530
495.594000	14.742659
495.780000	14.782432
495.965000	14.791105
496.151000	15.029543
496.337000	15.224709
496.522000	15.140900
496.708000	15.323856
496.893000	15.432232
497.079000	15.393287
497.264000	15.382533
497.450000	15.323221
497.636000	15.467833
497.821000	15.458645
498.007000	15.679435
498.192000	15.862335
498.378000	15.921572
498.563000	15.873792
498.749000	16.033216
498.935000	16.133360
499.120000	16.112808
499.306000	16.020958
499.491000	16.073662
499.677000	16.263796
499.862000	16.406290
500.048000	16.597052
500.234000	16.499218
500.419000	16.613325
500.605000	16.905277
500.790000	16.811862
500.976000	16.717375
501.161000	16.725341
501.347000	16.976960
501.533000	17.165487
501.718000	17.030766
501.904000	17.173491
502.089000	17.408606
502.275000	17.410159
502.460000	17.122546
502.646000	17.382005
502.832000	17.550203
503.017000	17.576283
503.203000	17.479022
503.388000	17.430128
503.574000	17.693842
503.759000	17.882766
503.945000	17.947697
504.131000	17.903811
504.316000	17.955463
504.502000	18.015479
504.687000	17.991432
504.873000	17.919886
505.058000	17.980407
505.244000	17.938415
505.430000	18.167120
505.615000	18.347544
505.801000	18.465844
505.986000	18.219865
506.172000	18.252911
506.358000	18.310250
506.543000	18.303477
506.729000	18.534774
506.914000	18.745835
507.100000	19.037793
507.285000	18.809936
507.471000	18.719319
507.657000	18.897547
507.842000	18.849387
508.028000	18.783002
508.213000	18.950440
508.399000	19.135924
508.584000	19.253558
508.770000	19.235479
508.956000	19.123435
509.141000	19.182636
509.327000	19.349499
509.512000	19.117626
509.698000	19.279979
509.883000	19.470638
510.069000	19.481629
510.255000	19.560536
510.440000	19.731773
510.626000	19.680017
510.811000	19.548352
510.997000	19.779807
511.182000	20.120727
511.368000	20.027385
511.554000	19.792552
511.739000	19.968562
511.925000	20.115614
512.110000	20.087091
512.296000	20.384345
512.481000	20.276264
512.667000	20.246878
512.853000	20.115634
513.038000	20.208107
513.224000	20.280499
513.409000	20.159539
513.595000	20.282101
513.780000	20.168882
513.966000	20.319124
514.152000	20.504542
514.337000	20.374792
514.523000	20.424791
514.708000	20.567793
514.894000	20.756659
515.079000	20.627477
515.265000	20.737039
515.451000	20.777878
515.636000	20.649913
515.822000	20.972261
516.007000	20.791766
516.193000	20.845418
516.378000	21.016645
516.564000	20.921624
516.750000	20.980439
516.935000	21.142621
517.121000	21.080541
517.306000	21.367625
517.492000	21.351286
517.677000	21.085009
517.863000	21.072789
518.049000	21.260202
518.234000	21.144148
518.420000	21.322322
518.605000	21.547556
518.791000	21.520677
518.976000	21.482884
519.162000	21.427316
519.348000	21.503020
519.533000	21.433018
519.719000	21.768466
519.904000	21.731554
520.090000	21.674588
520.275000	21.886361
520.461000	21.877876
520.647000	21.744145
520.832000	21.686068
521.018000	21.675145
521.203000	21.571916
521.389000	21.436850
521.574000	21.584841
521.760000	21.710415
521.946000	21.838032
522.131000	21.957586
522.317000	21.936686
522.502000	21.729574
522.688000	21.898067
522.873000	21.938256
523.059000	21.843335
523.245000	21.868349
523.430000	21.876621
523.616000	22.049139
523.801000	22.013276
523.987000	22.150541
524.172000	22.223103
524.358000	22.209779
524.544000	22.215754
524.729000	22.315836
524.915000	22.424597
525.100000	22.269445
525.286000	22.276326
525.471000	22.476393
525.657000	22.496326
525.843000	22.208563
526.028000	22.486252
526.214000	22.376317
526.399000	22.401582
526.585000	22.409400
526.770000	22.400191
526.956000	22.498944
527.142000	22.478434
527.327000	22.583452
527.513000	22.578410
527.698000	22.712669
527.884000	22.735718
528.069000	22.713135
528.255000	22.892027
528.441000	22.703789
528.626000	22.766855
528.812000	23.057722
528.997000	22.817886
529.183000	22.741486
529.368000	22.850424
529.554000	23.031667
529.740000	23.066307
529.925000	22.973698
530.111000	22.948596
530.296000	23.012869
530.482000	23.093078
530.667000	23.173457
530.853000	23.261170
531.039000	23.063769
531.224000	23.221874
531.410000	23.423222
531.595000	23.359559
531.781000	23.325492
531.967000	23.311260
532.152000	23.580784
532.338000	23.427110
532.523000	23.190941
532.709000	23.224492
532.894000	23.440150
533.080000	23.405844
533.266000	23.311394
533.451000	23.324260
533.637000	23.368338
533.822000	23.528617
534.008000	23.380746
534.193000	23.531367
534.379000	23.612339
534.565000	23.435738
534.750000	23.587175
534.936000	24.080396
535.121000	23.759623
535.307000	23.840583
535.492000	23.712237
535.678000	23.518468
535.864000	23.785081
536.049000	23.984955
536.235000	23.749620
536.420000	24.006592
536.606000	23.792830
536.791000	23.698450
536.977000	23.716516
537.163000	24.049495
537.348000	24.035036
537.534000	24.257027
537.719000	24.073090
537.905000	23.848529
538.090000	24.216275
538.276000	24.236060
538.462000	24.113327
538.647000	24.358905
538.833000	24.159525
539.018000	24.351129
539.204000	24.391596
539.389000	24.324940
539.575000	24.499907
539.761000	24.582344
539.946000	24.321977
540.132000	24.549277
540.317000	24.535246
540.503000	24.608308
540.688000	24.649463
540.874000	24.883524
541.060000	25.070910
541.245000	24.815925
541.431000	24.741571
541.616000	24.904126
541.802000	24.764581
541.987000	24.694717
542.173000	24.872088
542.359000	24.764215
542.544000	24.641002
542.730000	24.597428
542.915000	24.945113
543.101000	25.022308
543.286000	24.822985
543.472000	24.826181
543.658000	24.839957
543.843000	24.926525
544.029000	25.362944
544.214000	25.170379
544.400000	24.798891
544.585000	25.219928
544.771000	25.323896
544.957000	25.434311
545.142000	25.545330
545.328000	25.543723
545.513000	25.643058
545.699000	25.632542
545.884000	25.650018
546.070000	25.466836
546.261000	25.633562
546.451000	25.481948
546.642000	25.294459
546.833000	25.373095
547.023000	25.174834
547.214000	25.483122
547.405000	25.785850
547.595000	26.030193
547.786000	26.011257
547.977000	25.803280
548.167000	25.594633
548.358000	25.645289
548.549000	26.128188
548.740000	26.096906
548.930000	25.681596
549.121000	25.800223
549.312000	25.772991
549.502000	25.799173
549.693000	25.949530
549.884000	26.020459
550.074000	26.419608
550.265000	26.146953
550.456000	26.060559
550.646000	26.199758
550.837000	26.340987
551.028000	26.143626
551.218000	26.497135
551.409000	26.557939
551.600000	26.663109
551.790000	26.800503
551.981000	26.407965
552.172000	26.415694
552.362000	26.717695
552.553000	26.978546
552.744000	26.650419
552.934000	26.571495
553.125000	26.734963
553.316000	26.738022
553.506000	27.305231
553.697000	26.958318
553.888000	26.724432
554.079000	27.198130
554.269000	27.286178
554.460000	26.816419
554.651000	26.848719
554.841000	26.742723
555.032000	26.962317
555.223000	27.174291
555.413000	27.213380
555.604000	27.517094
555.795000	27.301477
555.985000	27.281892
556.176000	27.284150
556.367000	26.999797
556.557000	27.492289
556.748000	27.754629
556.939000	27.745009
557.129000	27.537020
557.320000	27.786208
557.511000	27.658739
557.701000	27.633894
557.892000	27.645316
558.083000	28.064888
558.273000	27.994388
558.464000	27.754592
558.655000	27.929356
558.845000	27.847227
559.036000	28.027525
559.227000	28.052903
559.418000	28.298556
559.608000	28.448197
559.799000	28.086792
559.990000	27.946899
560.180000	27.945847
560.371000	27.978957
560.562000	28.317361
560.752000	28.644656
560.943000	28.568330
561.134000	28.364795
561.324000	28.616787
561.515000	29.121122
561.706000	28.905115
561.896000	28.435178
562.087000	28.716343
562.278000	28.653751
562.468000	28.710296
562.659000	28.972360
562.850000	29.154274
563.040000	29.420310
563.231000	28.957566
563.422000	29.183626
563.612000	29.248431
563.803000	29.437132
563.994000	29.518161
564.185000	29.371626
564.375000	29.683255
564.566000	29.554821
564.757000	29.757575
564.947000	29.675895
565.138000	29.773770
565.329000	29.709218
565.519000	29.588003
565.710000	29.931115
565.901000	30.168498
566.091000	30.210760
566.282000	30.279226
566.473000	30.368801
566.663000	30.191654
566.854000	30.090146
567.045000	30.275696
567.235000	30.515669
567.426000	30.545378
567.617000	30.639097
567.807000	30.602464
567.998000	30.567295
568.189000	30.555295
568.379000	30.703180
568.570000	31.047565
568.761000	30.878865
568.951000	30.802875
569.142000	30.889154
569.333000	30.893110
569.524000	30.822135
569.714000	30.810409
569.905000	30.735255
570.096000	31.390180
570.286000	31.655700
570.477000	31.792060
570.668000	31.633436
570.858000	31.862824
571.049000	31.635853
571.240000	31.625196
571.430000	31.866990
571.621000	31.921407
571.812000	31.984475
572.002000	32.010476
572.193000	31.888018
572.384000	32.115708
572.574000	32.330386
572.765000	32.175086
572.956000	32.157389
573.146000	32.507823
573.337000	32.543530
573.528000	32.543578
573.718000	32.788992
573.909000	32.698866
574.100000	32.863381
574.290000	32.668011
574.481000	32.810127
574.672000	32.959777
574.863000	33.171587
575.053000	33.061657
575.244000	33.290920
575.435000	33.177753
575.625000	33.175875
575.816000	33.338530
576.007000	33.568018
576.197000	33.578333
576.388000	33.562071
576.579000	33.796658
576.769000	34.150647
576.960000	33.609143
577.155000	33.377232
577.350000	33.980186
577.545000	34.114524
577.740000	33.992325
577.935000	34.657836
578.130000	34.467199
578.326000	33.940914
578.521000	34.300233
578.716000	34.304110
578.911000	34.369944
579.106000	34.575254
579.301000	34.836070
579.496000	34.886552
579.691000	34.631313
579.886000	34.708645
580.081000	34.916629
580.276000	35.201702
580.471000	35.004269
580.666000	34.870367
580.861000	35.004337
581.057000	35.165360
581.252000	35.596635
581.447000	35.257181
581.642000	35.422116
581.837000	35.703306
582.032000	35.723195
582.227000	35.901977
582.422000	35.959631
582.617000	35.980439
582.812000	35.891904
583.007000	36.019936
583.202000	36.069073
583.397000	36.355370
583.592000	36.814131
583.788000	36.613811
583.983000	36.669741
584.178000	36.761290
584.373000	36.450672
584.568000	36.589770
584.763000	36.793836
584.958000	36.638393
585.153000	36.860528
585.348000	36.989269
585.543000	37.027201
585.738000	37.241605
585.933000	37.254961
586.128000	37.410353
586.324000	37.335305
586.519000	37.445581
586.714000	37.699275
586.909000	37.872619
587.104000	37.963268
587.299000	37.602559
587.494000	37.720618
587.689000	37.652998
587.884000	37.920555
588.079000	37.950828
588.274000	38.139515
588.469000	38.213366
588.664000	38.180529
588.859000	38.267358
589.055000	38.279667
589.250000	38.286166
589.445000	38.093897
589.640000	38.299625
589.835000	38.789897
590.030000	38.858230
590.225000	38.829497
590.420000	38.783488
590.615000	38.830233
590.810000	38.850719
591.005000	38.857414
591.200000	38.837396
591.395000	38.803426
591.591000	38.832730
591.786000	38.972153
591.981000	39.079404
592.176000	39.339871
592.371000	39.415407
592.566000	39.370752
592.761000	39.228524
592.956000	39.435715
593.151000	39.632609
593.346000	39.451712
593.541000	39.531975
593.736000	39.629377
593.931000	39.545427
594.126000	39.717501
594.322000	39.898329
594.517000	39.768590
594.712000	39.469891
594.907000	39.729912
595.102000	39.663993
595.297000	39.813222
595.492000	40.208115
595.687000	40.149688
595.882000	39.871391
596.077000	40.104459
596.272000	40.247951
596.467000	40.293800
596.662000	40.329073
596.857000	40.329441
597.053000	40.525235
597.248000	40.429296
597.443000	40.383887
597.638000	40.564035
597.833000	40.648262
598.028000	40.530569
598.223000	40.497843
598.418000	40.325098
598.613000	40.494211
598.808000	40.637584
599.003000	40.710539
599.198000	40.595334
599.393000	40.358208
599.589000	40.710303
599.784000	40.621577
599.979000	40.731765
600.174000	40.935796
600.369000	40.806731
600.564000	40.964543
600.759000	41.176370
600.954000	41.367193
601.149000	41.195109
601.344000	40.958990
601.539000	41.196694
601.734000	40.801691
601.929000	40.524400
602.124000	40.583657
602.320000	40.924984
602.515000	41.376038
602.710000	41.368153
602.905000	40.921167
603.100000	40.732485
603.295000	41.019532
603.490000	41.094459
603.685000	41.139743
603.880000	40.998106
604.075000	41.050602
604.270000	41.467226
604.465000	41.435736
604.660000	40.976864
604.856000	41.027894
605.051000	41.213950
605.246000	41.132982
605.441000	40.875963
605.636000	40.861930
605.831000	41.100216
606.026000	40.980098
606.221000	41.018996
606.416000	41.562136
606.611000	41.560735
606.806000	41.126745
607.001000	41.429622
607.196000	41.364546
607.391000	41.163058
607.587000	41.419708
607.782000	41.448465
607.977000	41.125675
608.172000	41.722620
608.367000	41.886802
608.562000	41.331505
608.757000	41.166133
608.952000	41.079107
609.147000	41.593560
609.342000	41.339907
609.537000	41.249949
609.732000	41.192836
609.927000	40.731665
610.122000	41.094185
610.318000	41.523767
610.513000	41.768563
610.708000	41.494145
610.903000	41.466008
611.098000	41.343559
611.293000	41.134980
611.488000	40.977836
611.683000	41.454995
611.878000	41.304675
612.073000	41.135617
612.268000	40.946529
612.463000	40.976310
612.658000	41.153870
612.854000	41.156050
613.049000	40.988287
613.244000	40.892041
613.439000	41.045425
613.634000	40.813932
613.829000	40.830172
614.024000	40.802029
614.219000	40.916544
614.414000	41.086380
614.609000	40.906075
614.804000	40.661982
614.999000	40.330014
615.194000	40.416952
615.389000	40.630431
615.585000	40.502789
615.780000	40.640093
615.975000	40.491418
616.170000	40.588249
616.365000	40.652178
616.560000	40.682229
616.755000	40.579305
616.950000	40.460915
617.145000	40.434584
617.340000	40.177993
617.535000	40.113699
617.730000	40.268455
617.925000	39.787215
618.120000	39.808842
618.316000	40.096632
618.511000	39.992133
618.706000	39.780091
618.901000	39.644967
619.096000	39.809816
619.291000	39.839361
619.486000	39.859523
619.681000	39.184469
619.876000	39.010732
620.071000	39.354424
620.266000	39.607485
620.461000	39.701683
620.656000	39.650226
620.852000	39.363602
621.047000	39.143453
621.242000	38.934209
621.437000	39.358519
621.632000	39.648703
621.827000	39.164588
622.022000	38.660285
622.217000	38.872829
622.412000	39.112513
622.607000	39.108102
622.802000	38.638379
622.997000	38.484642
623.192000	38.396254
623.387000	38.219990
623.583000	38.162922
623.778000	38.449031
623.973000	38.460142
624.168000	38.460711
624.363000	38.144509
624.558000	38.238270
624.753000	37.997678
624.948000	38.126471
625.143000	38.096570
625.338000	37.814954
625.533000	37.379851
625.728000	37.352898
625.923000	37.838936
626.119000	37.695167
626.314000	37.296957
626.509000	37.227550
626.704000	37.267570
626.899000	37.280286
627.094000	36.991473
627.289000	37.027688
627.484000	37.007312
627.679000	36.834905
627.874000	36.804077
628.069000	37.157163
628.264000	36.981374
628.459000	36.616102
628.654000	36.442763
628.850000	36.452043
629.045000	36.482748
629.240000	36.257024
629.435000	36.259611
629.630000	36.139524
629.825000	35.910204
630.020000	36.091594
630.215000	35.798062
630.410000	35.869896
630.605000	35.684136
630.800000	35.593665
630.995000	35.884062
631.190000	35.770253
631.385000	35.540509
631.581000	35.364538
631.776000	35.316617
631.971000	34.985993
632.166000	35.002819
632.361000	34.666099
632.556000	34.805823
632.751000	34.898036
632.946000	34.537903
633.141000	34.357167
633.336000	34.431457
633.531000	34.450441
633.726000	34.628208
633.921000	34.342233
634.117000	33.960274
634.312000	33.546204
634.507000	33.448385
634.702000	33.606487
634.897000	33.783749
635.092000	33.665382
635.287000	33.608700
635.482000	33.530019
635.677000	33.671170
635.872000	33.304662
636.067000	33.235217
636.262000	33.217894
636.457000	32.612966
636.652000	32.541319
636.848000	32.544335
637.043000	32.647641
637.238000	32.574697
637.433000	32.345741
637.628000	32.154262
637.823000	32.238583
638.018000	32.184054
638.213000	31.958369
638.408000	31.690233
638.603000	31.528018
638.798000	31.595150
638.993000	31.543631
639.188000	31.463640
639.383000	31.217420
639.579000	31.462518
639.774000	31.084050
639.969000	30.930798
640.164000	30.856405
640.359000	30.927369
640.554000	31.053544
640.749000	30.966237
640.944000	30.881877
641.139000	30.835118
641.334000	30.338442
641.529000	29.574536
641.724000	29.746667
641.919000	30.097796
642.115000	30.251954
642.310000	30.176102
642.505000	29.898670
642.700000	29.860109
642.895000	29.672001
643.090000	29.586085
643.285000	29.600896
643.480000	29.701256
643.675000	29.534589
643.870000	29.591497
644.065000	29.224937
644.260000	28.864804
644.455000	29.029034
644.650000	28.935071
644.846000	28.847249
645.041000	28.188172
645.236000	27.863248
645.431000	28.363958
645.626000	27.930857
645.821000	27.759176
646.016000	28.040541
646.211000	28.416557
646.406000	28.151966
646.601000	27.834291
646.796000	27.543976
646.991000	27.057601
647.186000	27.011316
647.381000	27.481707
647.577000	27.569605
647.772000	27.599145
647.967000	27.417570
648.162000	26.833240
648.357000	26.644562
648.552000	26.746347
648.747000	26.773143
648.942000	26.846522
649.137000	26.685830
649.332000	26.268778
649.527000	25.947078
649.722000	26.124499
649.917000	26.065324
650.113000	25.671940
650.308000	25.470491
650.503000	25.422884
650.698000	25.621215
650.893000	25.446279
651.088000	25.690358
651.283000	25.769205
651.478000	25.285145
651.673000	25.333586
651.868000	24.968002
652.063000	25.040486
652.258000	25.162573
652.453000	25.015945
652.648000	24.536361
652.844000	24.554127
653.039000	24.406658
653.234000	23.750092
653.429000	23.746600
653.624000	24.067221
653.819000	24.303909
654.014000	24.044350
654.209000	23.934691
654.404000	23.886806
654.599000	23.584152
654.794000	23.341895
654.989000	23.780682
655.184000	23.467316
655.380000	22.818429
655.575000	22.792117
655.770000	22.905221
655.965000	22.974627
656.160000	22.668086
656.355000	22.872064
656.550000	22.680800
656.745000	22.451952
656.940000	22.371424
657.135000	22.691766
657.330000	22.409990
657.525000	21.837727
657.720000	21.835152
657.915000	21.954867
658.111000	21.782437
658.306000	21.986531
658.501000	21.814774
658.696000	21.502021
658.891000	21.552899
659.086000	21.175800
659.281000	21.046401
659.476000	20.882703
659.671000	20.605100
659.866000	20.754979
660.061000	20.792447
660.256000	21.042813
660.451000	20.826317
660.646000	20.494640
660.842000	20.512409
661.037000	20.349169
661.232000	20.183490
661.427000	20.238234
661.622000	19.808585
661.817000	19.714618
662.012000	20.018798
662.207000	19.813220
662.402000	19.542162
662.597000	19.733982
662.792000	19.169213
662.987000	19.088194
663.182000	19.348660
663.378000	19.298676
663.573000	18.904372
663.768000	18.716257
663.963000	18.802313
664.158000	18.785146
664.353000	19.286701
664.548000	19.244073
664.743000	18.822849
664.938000	18.479730
665.133000	18.310856
665.328000	18.794307
665.523000	18.632637
665.718000	18.273807
665.913000	18.156640
666.109000	18.191212
666.304000	18.185297
666.499000	17.811822
666.694000	18.201305
666.889000	18.290036
667.084000	17.610937
667.279000	17.375958
667.474000	17.446427
667.669000	17.454316
667.864000	17.572181
668.059000	17.294737
668.254000	17.012059
668.449000	16.854417
668.644000	16.796561
668.840000	17.067239
669.035000	16.700785
669.230000	16.267429
669.425000	16.689167
669.620000	16.534684
669.815000	16.533024
670.010000	16.370223
670.205000	16.174682
670.400000	16.004640
670.595000	16.262744
670.790000	16.142746
670.985000	16.029999
671.180000	16.152815
671.376000	15.591944
671.571000	15.390879
671.766000	15.550829
671.961000	15.519439
672.156000	15.408041
672.351000	15.175031
672.546000	15.194520
672.741000	15.229815
672.936000	15.218594
673.131000	15.841198
673.326000	15.421469
673.521000	14.619254
673.716000	14.411906
673.911000	14.290352
674.107000	15.009087
674.302000	15.057250
674.497000	14.639668
674.692000	14.259136
674.887000	14.073653
675.082000	14.164631
675.277000	14.476410
675.472000	14.177698
675.667000	13.932148
675.862000	13.773705
676.057000	13.846639
676.252000	13.997233
676.447000	13.609107
676.643000	13.687506
676.838000	13.956917
677.033000	13.700728
677.228000	13.882957
677.423000	13.833450
677.618000	13.315887
677.813000	12.908201
678.008000	13.227945
678.203000	13.339121
678.398000	12.922133
678.593000	13.043381
678.788000	13.170365
678.983000	12.601382
679.178000	12.510083
679.374000	12.267588
679.569000	12.431198
679.764000	12.487705
679.959000	12.353477
680.154000	12.316573
680.349000	12.062669
680.544000	11.914875
680.739000	12.046282
680.934000	11.966136
681.129000	11.993019
681.324000	11.776167
681.519000	12.052328
681.714000	11.837389
681.909000	11.809723
682.105000	11.670009
682.300000	11.942377
682.495000	11.735984
682.690000	11.628899
682.885000	11.557878
683.080000	11.381828
683.275000	11.400974
683.470000	11.609854
683.665000	11.648864
683.860000	11.837736
684.055000	11.358111
684.250000	10.774136
684.445000	10.527452
684.641000	11.026379
684.836000	10.949739
685.031000	10.628489
685.226000	10.601962
685.421000	11.137672
685.616000	10.768489
685.811000	10.458572
686.006000	10.622078
686.201000	10.560763
686.396000	10.153574
686.591000	10.070448
686.786000	10.356004
686.981000	10.170343
687.176000	10.312872
687.372000	10.220421
687.567000	10.336070
687.762000	10.267086
687.957000	10.099701
688.152000	9.898062
688.347000	9.804129
688.542000	9.359227
688.737000	9.103064
688.932000	8.971263
689.127000	9.412130
689.322000	9.713616
689.517000	9.493279
689.712000	9.032252
689.908000	9.006030
690.103000	9.172322
690.298000	9.329785
690.493000	9.155226
690.688000	8.917505
690.883000	9.098119
691.078000	9.208298
691.273000	9.202182
691.468000	8.898033
691.663000	8.802570
691.858000	8.962173
692.053000	8.825283
692.248000	8.827108
692.443000	8.726045
692.639000	8.650491
692.834000	8.975416
693.029000	9.318463
693.224000	9.224722
693.419000	8.637261
693.614000	8.406010
693.809000	8.222688
694.004000	8.062964
694.199000	7.790782
694.394000	8.073569
694.589000	7.979474
694.784000	7.987580
694.979000	8.090602
695.174000	7.912416
695.370000	8.258988
695.565000	8.006646
695.760000	7.589490
695.955000	7.992581
696.150000	8.083901
696.345000	7.565468
696.540000	7.645707
696.740000	7.484174
696.940000	7.519633
697.140000	7.588309
697.340000	7.376642
697.539000	7.493036
697.739000	7.488520
697.939000	7.493711
698.139000	7.073190
698.339000	6.707521
698.539000	6.786600
698.739000	6.729253
698.939000	6.918079
699.138000	6.754628
699.338000	7.375716
699.538000	7.335371
699.738000	6.723645
699.938000	6.828567
700.138000	6.786592
700.338000	6.530044
700.538000	6.730834
700.737000	6.874682
700.937000	6.394437
701.137000	6.173974
701.337000	6.738449
701.537000	6.846051
701.737000	6.551691
701.937000	6.396229
702.137000	6.241730
702.337000	6.128132
702.536000	6.024089
702.736000	5.899091
702.936000	5.650700
703.136000	6.229999
703.336000	6.228590
703.536000	6.175378
703.736000	5.744392
703.936000	5.826559
704.135000	5.651276
704.335000	5.894946
704.535000	5.619545
704.735000	5.499118
704.935000	5.794364
705.135000	5.767218
705.335000	5.675417
705.535000	6.004672
705.735000	5.836926
705.934000	5.857745
706.134000	5.693042
706.334000	5.459924
706.534000	5.348268
706.734000	5.400357
706.934000	5.336273
707.134000	5.289810
707.334000	5.404960
707.533000	5.575079
707.733000	5.483030
707.933000	5.336345
708.133000	5.465867
708.333000	5.373684
708.533000	4.940567
708.733000	5.302259
708.933000	5.250523
709.132000	4.953795
709.332000	4.994536
709.532000	5.070439
709.732000	5.063041
709.932000	4.474550
710.132000	4.496080
710.332000	4.429159
710.532000	4.903931
710.732000	5.063849
710.931000	4.872157
711.131000	4.678650
711.331000	4.821333
711.531000	4.624633
711.731000	4.677357
711.931000	4.709806
712.131000	4.646620
712.331000	4.664549
712.530000	4.535697
712.730000	4.374725
712.930000	4.356797
713.130000	4.396844
713.330000	4.253417
713.530000	4.484889
713.730000	5.059956
713.930000	4.626649
714.129000	4.248623
714.329000	4.187381
714.529000	4.333842
714.729000	4.517700
714.929000	4.367893
715.129000	4.066378
715.329000	4.270607
715.529000	4.237784
715.729000	4.840893
715.928000	4.601295
716.128000	3.999556
716.328000	3.918780
716.528000	3.914824
716.728000	4.118176
716.928000	3.882415
717.128000	3.958717
717.328000	3.941166
717.527000	3.827476
717.727000	3.865092
717.927000	3.792546
718.127000	3.650169
718.327000	3.409761
718.527000	3.408052
718.727000	3.931022
718.927000	3.613739
719.127000	3.336844
719.326000	3.681844
719.526000	4.047801
719.726000	3.927753
719.926000	3.142411
720.126000	3.117109
720.326000	3.624184
720.526000	3.513006
720.726000	3.359650
720.925000	3.594950
721.125000	3.192229
721.325000	3.214329
721.525000	3.378320
721.725000	3.239832
721.925000	3.283771
722.125000	3.475528
722.325000	3.997340
722.524000	3.573006
722.724000	3.035542
722.924000	2.773159
723.124000	2.872864
723.324000	3.278765
723.524000	3.290507
723.724000	2.872252
723.924000	3.120344
724.124000	3.130230
724.323000	3.451868
724.523000	3.360719
724.723000	3.774256
724.923000	3.430789
725.123000	3.195597
725.323000	3.245600
725.523000	3.047621
725.723000	2.858194
725.922000	3.003467
726.122000	3.157942
726.322000	2.899098
726.522000	2.955461
726.722000	3.602526
726.922000	3.190464
727.122000	3.013922
727.322000	3.268280
727.521000	3.052085
727.721000	2.670352
727.921000	2.688444
728.121000	2.624909
728.321000	2.197900
728.521000	2.501179
728.721000	2.704204
728.921000	3.037431
729.121000	3.739041
729.320000	3.018636
729.520000	2.611316
729.720000	2.561188
729.920000	2.418417
730.120000	2.557761
730.320000	2.673407
730.520000	2.182098
730.720000	2.262151
730.919000	2.563536
731.119000	2.843102
731.319000	2.269569
731.519000	2.039856
731.719000	2.408728
731.919000	2.152751
732.119000	1.567313
732.319000	1.655322
732.519000	2.228904
732.718000	1.991348
732.918000	2.104146
733.118000	2.387801
733.318000	2.701800
733.518000	2.441402
733.718000	1.736431
733.918000	1.653510
734.118000	1.997877
734.317000	2.240035
734.517000	1.872367
734.717000	2.059852
734.917000	2.770564
735.117000	2.641581
735.317000	2.282884
735.517000	2.600861
735.717000	2.883336
735.916000	2.078247
736.116000	1.792386
736.316000	2.051146
736.516000	2.088601
736.716000	2.022958
736.916000	1.485853
737.116000	1.868044
737.316000	2.473334
737.516000	2.295229
737.715000	2.287050
737.915000	1.719201
738.115000	1.550550
738.315000	2.035694
738.515000	1.832060
738.715000	2.008313
738.915000	2.342435
739.115000	1.672589
739.314000	1.612548
739.514000	2.313454
739.714000	2.270217
739.914000	1.971698
740.114000	1.857047
740.314000	2.193989
740.514000	2.671815
740.714000	1.738643
740.913000	0.956506
741.113000	1.465356
741.313000	1.853336
741.513000	1.539316
741.713000	1.593466
741.913000	1.781901
742.113000	1.729016
742.313000	1.400847
742.513000	1.593402
742.712000	1.618759
742.912000	1.245450
743.112000	1.361147
743.312000	0.997938
743.512000	1.569984
743.712000	1.697511
743.912000	0.974348
744.112000	0.944280
744.311000	0.895541
744.511000	1.236294
744.711000	1.723588
744.911000	1.261784
745.111000	1.356320
745.311000	1.596977
745.511000	1.288258
745.711000	1.196108
745.911000	1.343083
746.110000	0.896856
746.310000	0.891695
746.510000	1.108821
746.710000	1.763600
746.910000	1.649799
747.110000	1.043159
747.310000	0.813466
747.510000	1.144035
747.709000	1.419838
747.909000	1.423479
748.109000	1.630355
748.309000	1.399237
748.509000	1.049206
748.709000	0.795981
748.909000	0.967091
749.109000	1.100391
749.308000	1.693714
749.508000	1.181199
749.708000	1.105922
749.908000	1.614378
750.108000	1.532415
750.308000	0.950083
750.508000	1.585339
750.708000	0.941917
750.908000	0.265794
751.107000	1.210185
751.307000	2.107372
751.507000	1.400961
751.707000	1.388190
751.907000	1.358546
752.107000	1.153090
752.307000	0.924022
752.507000	1.182242
752.706000	0.981383
752.906000	1.740839
753.106000	0.863939
753.306000	0.631164
753.506000	1.554669
753.706000	1.017115
753.906000	1.208787
754.106000	1.424717
754.305000	1.415269
754.505000	1.294405
754.705000	1.142065
754.905000	1.177966
755.105000	1.613682
755.305000	0.632421
755.505000	0.450736
755.705000	1.278107
755.905000	1.097663
756.104000	0.418464
756.304000	0.165292
756.504000	-0.158683
756.704000	0.946567
756.904000	1.423115
757.104000	1.258429
757.304000	1.015382
757.504000	1.150315
757.703000	0.845903
757.903000	1.375705
758.103000	1.319764
758.303000	0.687076
758.503000	0.677073
758.703000	0.643122
758.903000	0.453822
759.103000	0.977882
759.303000	0.934820
759.502000	0.638355
759.702000	0.925440
759.902000	0.761701
760.102000	0.799712
760.302000	0.850815
760.502000	1.065472
760.702000	1.030751
760.902000	0.693872
761.101000	0.623001
761.301000	0.149636
761.501000	0.575616
761.701000	0.503610
761.901000	0.543004
762.101000	1.121498
762.301000	1.096945
762.501000	0.483151
762.700000	0.300118
762.900000	0.386710
763.100000	0.696376
763.300000	0.848256
763.500000	0.588027
763.703000	0.524110
763.905000	0.140543
764.108000	1.102131
764.311000	0.939995
764.513000	0.616172
764.716000	0.857098
764.919000	0.694890
765.121000	0.179761
765.324000	-0.122302
765.527000	0.206615
765.729000	0.269985
765.932000	1.057586
766.135000	1.146120
766.337000	0.664153
766.540000	0.551669
766.743000	0.786805
766.945000	0.311281
767.148000	-0.188732
767.351000	-0.163031
767.553000	0.635238
767.756000	0.377937
767.958000	0.248923
768.161000	0.713853
768.364000	0.314838
768.566000	-0.112966
768.769000	0.342635
768.972000	0.590084
769.174000	0.199907
769.377000	-0.323650
769.580000	-0.219290
769.782000	0.436887
769.985000	-0.061860
770.188000	-0.827197
770.390000	0.083527
770.593000	1.394349
770.796000	1.262870
770.998000	0.640423
771.201000	0.203080
771.404000	0.455914
771.606000	0.284243
771.809000	0.550957
772.012000	0.699045
772.214000	-0.143129
772.417000	-0.383949
772.620000	0.510795
772.822000	0.178752
773.025000	-0.103507
773.228000	-0.103700
773.430000	0.017537
773.633000	0.693350
773.836000	0.545422
774.038000	0.479558
774.241000	0.465847
774.444000	0.153943
774.646000	0.875269
774.849000	0.809029
775.052000	0.631563
775.254000	0.523475
775.457000	0.222581
775.659000	0.318931
775.862000	0.031490
776.065000	0.333246
776.267000	0.938261
776.470000	1.397813
776.673000	0.639324
776.875000	1.070510
777.078000	0.598701
777.281000	-0.065233
777.483000	0.547194
777.686000	0.855109
777.889000	0.744312
778.091000	0.901014
778.294000	-0.107744
778.497000	-0.163925
778.699000	-0.079925
778.902000	-0.023919
779.105000	0.355990
779.307000	1.159677
779.510000	0.343173
779.713000	0.542990
779.915000	0.260301
780.118000	0.929744
780.321000	1.116207
780.523000	0.375791
780.726000	-0.138658
780.929000	-0.010003
781.131000	0.004293
781.334000	-0.613373
781.537000	-0.571874
781.739000	0.321523
781.942000	-0.053390
782.145000	-0.619335
782.347000	-0.431050
782.550000	-0.198962
782.753000	-0.330751
782.955000	-0.112498
783.158000	0.048185
783.361000	0.399605
783.563000	-0.083448
783.766000	-0.068986
783.968000	2.121277
784.171000	1.673205
784.374000	0.373662
784.576000	0.447375
784.779000	0.756245
784.982000	0.953348
785.184000	0.183356
785.387000	0.646458
785.590000	1.034079
785.792000	0.723455
785.995000	0.394534
786.198000	0.665640
786.400000	0.291221
786.603000	0.518872
786.806000	0.260897
787.008000	0.396584
787.211000	0.246679
787.414000	-0.375081
787.616000	0.065544
787.819000	-0.010695
788.022000	-0.607386
788.224000	0.111963
788.427000	-0.271627
788.630000	0.220220
788.832000	0.543030
789.035000	0.035325
789.238000	-0.705065
789.440000	-0.647105
789.643000	0.329851
789.846000	-0.181702
790.048000	0.424999
790.251000	0.580815
790.454000	0.191145
790.656000	0.893744
790.859000	0.035958
791.062000	-0.527785
791.264000	0.395903
791.467000	-0.246719
791.669000	-0.955267
791.872000	-0.169233
792.075000	-0.595580
792.277000	0.036341
792.480000	0.115970
792.683000	-0.502221
792.885000	-0.851588
793.088000	-0.711464
793.291000	-0.793024
793.493000	-0.794470
793.696000	0.260663
793.899000	0.421738
794.101000	-0.188052
794.304000	-0.204587
794.507000	0.311368
794.709000	0.506367
794.912000	-0.352472
795.115000	-0.694908
795.317000	-0.255435
795.520000	0.021243
795.723000	-0.126332
795.925000	-0.800176
796.128000	-0.848378
796.331000	-0.176160
796.533000	-0.622153
796.736000	-0.326737
796.939000	-0.078139
797.141000	-0.261707
797.344000	0.605670
797.547000	0.856317
797.749000	0.573370
797.952000	0.139450
798.155000	-0.246438
798.357000	-0.602096
798.560000	-0.351085
798.763000	0.310060
798.965000	-0.401173
799.168000	-0.249555
799.371000	-0.147868
799.573000	-0.421210
799.776000	-0.934198
799.978000	-0.937442
800.181000	-0.046361
800.384000	1.707685
800.586000	0.470588
800.789000	-1.166485
800.992000	-0.614702
801.194000	-0.702342
801.397000	-0.929073
801.600000	-0.897531
801.802000	0.596348
802.005000	0.668014
802.208000	-0.746885
802.410000	-0.152045
802.613000	0.093034
802.816000	0.145865
803.018000	-0.576202
803.221000	-0.347779
803.424000	0.960592
803.626000	0.465981
803.829000	0.023107
804.032000	1.128092
804.234000	1.804748
804.437000	-0.012525
804.640000	-0.298557
804.842000	0.077050
805.045000	-0.336744
805.248000	-0.175002
805.450000	-0.048664
805.653000	-0.194077
805.856000	-0.683058
806.058000	0.532494
806.261000	-0.267786
806.464000	-0.468639
806.666000	-0.085840
806.869000	-0.251818
807.072000	-1.354526
807.274000	-1.796798
807.477000	-0.473938
807.679000	0.060907
807.882000	-0.641914
808.085000	-0.683489
808.287000	-0.218113
808.490000	-1.115068
808.693000	-0.723343
808.895000	-0.125371
809.098000	0.005616
809.301000	-0.200986
809.503000	-0.767813
809.706000	0.252276
809.909000	0.764290
810.111000	0.499480
810.314000	-0.013324
810.517000	-0.696312
810.719000	-0.986436
810.922000	-0.434950
811.125000	0.732281
811.327000	0.563407
811.530000	-0.380312
811.735000	-0.707430
811.940000	-0.670375
812.146000	-0.556793
812.351000	0.180438
812.556000	-0.033089
812.761000	-0.540871
812.967000	0.692242
813.172000	0.711103
813.377000	-0.210258
813.582000	0.380860
813.788000	-0.331828
813.993000	-1.183258
814.198000	0.045631
814.403000	-0.767361
814.609000	-0.193546
814.814000	-0.074160
815.019000	1.186389
815.224000	0.845842
815.429000	-0.517318
815.635000	-0.236250
815.840000	0.086921
816.045000	0.290381
816.250000	0.270510
816.456000	-0.747722
816.661000	-1.917791
816.866000	-1.286124
817.071000	-0.936824
817.277000	-1.788762
817.482000	-0.841158
817.687000	-0.324270
817.892000	-0.367648
818.097000	0.006251
818.303000	0.714647
818.508000	1.170733
818.713000	7.059008
818.918000	4.036315
819.124000	0.801803
819.329000	-0.330072
819.534000	-0.731696
819.739000	-1.174607
819.945000	-0.692834
820.150000	-0.291919
820.355000	-0.292487
820.560000	0.347059
820.766000	0.134483
820.971000	-0.422952
821.176000	-1.629198
821.381000	-2.461426
821.586000	-1.461529
821.792000	0.504767
821.997000	0.028189
822.202000	-0.297363
822.407000	-0.886087
822.613000	-1.018849
822.818000	-0.540284
823.023000	-0.146734
823.228000	-0.257891
823.434000	0.336975
823.639000	0.492200
823.844000	-0.148270
824.049000	0.560300
824.255000	0.628768
824.460000	-0.015625
824.665000	-0.440348
824.870000	0.522583
825.075000	-0.015720
825.281000	0.051806
825.486000	1.230332
825.691000	-1.309346
825.896000	-2.448745
826.102000	-0.334438
826.307000	0.052454
826.512000	-0.107590
826.717000	0.075775
826.923000	-0.361535
827.128000	-0.570031
827.333000	-0.782762
827.538000	0.216824
827.744000	0.614658
827.949000	-0.179616
828.154000	-0.063237
828.359000	0.194299
828.564000	-0.675223
828.770000	-0.323652
828.975000	0.670082
829.180000	0.126128
829.385000	-1.134723
829.591000	-1.139496
829.796000	-0.448953
830.001000	-0.233324
830.206000	-0.523620
830.412000	-1.173930
830.617000	-0.983457
830.822000	0.250126
831.027000	-0.768093
831.232000	-1.114032
831.438000	-0.385423
831.643000	-0.262654
831.848000	-0.484764
832.053000	0.081514
832.259000	0.155811
832.464000	-2.075866
832.669000	-2.058478
832.874000	-1.483572
833.080000	-1.040845
833.285000	0.982534
833.490000	0.582933
833.695000	-0.823496
833.901000	-0.802068
834.106000	-1.538164
834.311000	-0.578252
834.516000	0.007654
834.721000	-0.736345
834.927000	0.316881
835.132000	-0.198761
835.337000	1.636407
835.542000	0.735951
835.748000	-1.082319
835.953000	0.893331
836.158000	0.216701
836.363000	-0.175629
836.569000	0.087175
836.774000	-0.706561
836.979000	-1.316809
837.184000	-1.718397
837.390000	-1.029727
837.595000	-0.712335
837.800000	-0.259383
838.005000	-0.018833
838.210000	-0.691739
838.416000	-0.964621
838.621000	-1.292331
838.826000	-0.993702
839.031000	-0.508927
839.237000	-1.170781
839.442000	-1.145190
839.647000	-1.280588
839.852000	-1.699208
840.058000	-1.594791
840.263000	-1.713725
840.468000	-1.798858
840.673000	-0.603387
840.878000	-0.269971
841.084000	-0.803542
841.289000	-0.384537
841.494000	2.100022
841.699000	2.021899
841.905000	1.202683
842.110000	1.409282
842.315000	-0.936747
842.520000	-0.678245
842.726000	-0.794612
842.931000	-1.023272
843.136000	0.066402
843.341000	-1.474646
843.547000	-1.065260
843.752000	-0.165639
843.957000	-0.782240
844.162000	-1.315809
844.367000	-1.466180
844.573000	-0.642919
844.778000	-0.345727
844.983000	0.275483
845.188000	0.515086
845.394000	-1.493121
845.599000	-1.399549
845.804000	-0.983327
846.009000	-0.384543
846.215000	-1.451002
846.420000	-1.302410
846.625000	0.315188
846.830000	1.015340
847.036000	-0.174639
847.241000	-0.667674
847.446000	0.809110
847.651000	0.256421
847.856000	-1.393476
848.062000	-1.022412
848.267000	0.822550
848.472000	-0.681036
848.677000	-2.130640
848.883000	-0.650096
849.088000	0.770885
849.293000	-0.531874
849.498000	-1.135550
849.704000	0.232850
849.909000	-0.598024
850.114000	-1.813318
850.319000	-0.887853
850.524000	-0.473762
850.730000	-0.346804
850.935000	-0.445822
851.140000	0.368691
851.345000	0.336016
851.551000	0.631517
851.756000	0.700709
851.961000	-0.847705
852.166000	-1.277169
852.372000	-0.817257
852.577000	-0.189976
852.782000	-0.224999
852.987000	0.311423
853.193000	-0.023525
853.398000	0.379873
853.603000	-1.337578
853.808000	-2.113605
854.013000	-1.245020
854.219000	0.350055
854.424000	2.637301
854.629000	1.548945
854.834000	-0.540415
855.040000	-0.232100
855.245000	-0.300377
855.450000	-2.433480
855.655000	-3.620952
855.861000	-2.808663
856.066000	-1.182411
856.271000	-1.465458
856.476000	0.186899
856.682000	-0.697373
856.887000	-3.773819
857.092000	-2.115921
857.297000	1.434084
857.502000	0.474215
857.708000	-1.132474
857.913000	0.153883
858.118000	-0.278098
858.323000	-0.894701
858.529000	-0.748651
858.734000	-1.077074
858.939000	-0.789273
859.144000	-1.740816
859.350000	-3.164571
859.555000	-2.844937
859.760000	-0.099398
859.965000	1.041534
860.171000	-1.134747
860.376000	-0.211565
860.581000	-1.998503
860.786000	-5.034061
860.991000	-4.342842
861.197000	-2.502082
861.402000	0.011286
861.607000	-0.929808
861.812000	-2.483858
862.018000	-1.734365
862.223000	-0.901135
862.428000	-0.218006
862.633000	-0.294633
862.839000	-0.797033
863.044000	-1.230781
863.249000	-2.079294
863.454000	-0.143408
863.659000	-1.193514
863.865000	-1.941776
864.070000	-1.672663
864.275000	-1.361558
864.480000	-1.683127
864.686000	-3.707065
864.891000	-3.432980
865.096000	-0.823401
865.301000	0.928557
865.507000	0.573240
865.712000	-0.148311
865.917000	-0.996440
866.122000	0.133490
866.328000	-3.404981
866.533000	-2.914776
866.738000	0.541366
866.943000	0.134607
867.148000	0.832693
867.354000	-2.013321
867.559000	-1.972550
867.764000	-0.527753
867.969000	-0.029236
868.175000	-0.820015
868.380000	-0.906434
868.585000	-3.166194
868.790000	-1.120597
868.996000	-0.832272
869.201000	-2.486413
869.406000	-3.177789
869.611000	-2.458071
869.817000	-1.987250
870.022000	2.404835
870.227000	0.697958
870.432000	-1.966486
870.637000	-0.762508
870.843000	-2.283483
871.048000	-2.327937
871.253000	1.140785
871.458000	-0.335689
871.664000	-3.057960
871.869000	-3.120160
872.074000	-1.934395
872.279000	-0.738875
872.485000	-1.411573
872.690000	-2.446304
872.895000	-2.366601
873.100000	-1.650036
873.306000	-1.882808
873.511000	-0.850212
873.716000	0.833849
873.921000	-1.440657
874.126000	-1.807101
874.332000	-1.824906
874.537000	-0.863843
874.742000	-0.492689
874.947000	-0.356056
875.153000	0.527426
875.358000	-0.032749
875.563000	-0.359905
875.768000	-2.942952
875.974000	-3.520605
876.179000	-0.363608
876.384000	-1.029693
876.589000	-2.666986
876.794000	-2.622086
877.000000	-2.624249
877.205000	-3.579212
877.410000	-0.707811
877.615000	-1.812201
877.821000	-4.495514
878.026000	-2.362882
878.231000	-3.332509
878.436000	-4.018358
878.642000	-2.676224
878.847000	-0.867909
879.052000	0.700192
879.257000	-1.269328
879.463000	-1.864581
879.668000	-1.568307
879.873000	-0.183780
880.078000	-3.072165
880.283000	-4.683675
880.489000	-3.833833
880.694000	-3.950895
880.899000	-2.463278
881.104000	0.675454
881.310000	2.503689
881.515000	0.674661
881.720000	1.642404
881.925000	2.930046
882.131000	5.078041
882.336000	2.179797
882.541000	-1.646406
882.746000	-0.819434
882.952000	-2.590990
883.157000	-2.440590
883.362000	-3.386483
883.567000	-4.031384
883.772000	-3.485282
883.978000	-3.754630
884.183000	-1.474393
884.388000	-0.143377
884.593000	-3.277764
884.799000	1.136607
885.004000	0.719737
885.209000	-0.795841
885.414000	-1.548459
885.620000	-4.059462
885.825000	0.180622
886.030000	-0.256747
886.235000	-2.236975
886.440000	0.238307
886.646000	-2.930348
886.851000	-3.559810
887.056000	1.025953
887.261000	-0.207599
887.467000	-3.926640
887.672000	-1.684590
887.877000	-2.890381
888.082000	-4.565345
888.288000	-4.948194
888.493000	-6.178375
888.698000	-5.177450
888.903000	-2.760296
889.109000	-3.447556
889.314000	-0.560474
889.519000	-1.824689
889.724000	-0.097995
889.929000	-0.963778
890.135000	-0.619172
890.340000	-0.682091
890.545000	-3.828457
890.750000	-4.537715
890.956000	-2.384811
891.161000	-0.216488
891.366000	-3.033528
891.571000	-2.746582
891.777000	-1.924990
891.982000	0.254370
892.187000	0.730734
892.392000	2.269963
892.598000	1.984890
892.803000	0.078173
893.008000	-3.286028
893.213000	-3.756669
893.418000	-3.662472
893.624000	-3.741487
893.829000	-5.441761
894.034000	-2.231197
894.239000	0.079423
894.445000	-3.151277
894.650000	-4.331107
894.855000	-4.213835
895.060000	-4.145568
895.266000	-3.925555
895.471000	-5.407760
895.676000	-1.528370
895.881000	0.330773
896.087000	-1.541824
896.292000	-3.625180
896.497000	1.155400
896.702000	-1.490340
896.907000	-3.319076
897.113000	3.748544
897.318000	3.304380
897.523000	1.095917
897.728000	-0.998389
897.934000	-1.375492
898.139000	-0.807231
898.344000	2.393122
898.549000	-0.561361
898.755000	-3.082164
898.960000	-4.531518
899.165000	-6.354782
899.370000	-2.658464
899.575000	2.049688
899.781000	-0.965366
899.986000	-0.834067
900.191000	0.085922
900.396000	-1.899102
900.602000	-2.576184
900.807000	-3.599969
901.012000	-1.531686
901.217000	0.155578
901.423000	-3.080672
901.628000	-4.308441
901.833000	1.243912
902.038000	0.431561
902.244000	-3.668443
902.449000	-2.659306
902.654000	-2.270693
902.859000	-1.780434
903.064000	-0.396775
903.270000	0.509978
903.475000	-2.915396
903.680000	-5.636269
903.885000	-5.258804
904.091000	-3.941401
904.296000	-5.022706
904.501000	-4.186744
904.706000	-3.270015
904.912000	0.166351
905.117000	-2.302354
905.322000	-3.638988
905.527000	-3.184835
905.733000	-1.947161
905.938000	-2.473034
906.143000	-2.502752
906.348000	-4.511541
906.553000	-1.100418
906.759000	-0.351614
906.964000	-1.706653
907.169000	-2.547937
907.374000	-5.333431
907.580000	-2.859139
907.785000	-1.905510
907.990000	27.677821
908.195000	18.679832
908.401000	-1.068292
908.606000	-8.287513
908.811000	-9.297542
909.016000	-2.166815
909.221000	-0.604235
909.427000	-2.422808
909.632000	-4.593598
909.837000	-3.182612
910.042000	-5.362598
910.248000	-8.217151
910.453000	-4.603303
910.658000	-4.147559
910.863000	-4.470118
911.069000	-5.224573
911.274000	-0.884042
911.479000	0.689972
911.684000	-6.702583
911.890000	-4.325115
912.095000	-3.074032
912.300000	-5.964137
912.506000	-4.532430
912.711000	-4.247091
912.917000	-1.428365
913.123000	0.710540
913.328000	-1.180066
913.534000	-2.407859
913.740000	7.641899
913.946000	4.073195
914.151000	-3.540540
914.357000	-5.606410
914.563000	-1.382406
914.768000	-4.321771
914.974000	-5.533376
915.180000	-3.957222
915.385000	-2.427487
915.591000	-7.402159
915.797000	-2.917188
916.002000	2.343636
916.208000	-1.171156
916.414000	-2.862155
916.620000	-5.110577
916.825000	-1.190267
917.031000	-0.065655
917.237000	-7.975581
917.442000	-3.017189
917.648000	-4.479765
917.854000	-7.256838
918.059000	1.380270
918.265000	1.764147
918.471000	-2.296285
918.676000	-5.748172
918.882000	-8.151808
919.088000	-5.500447
919.294000	-10.020883
919.499000	-8.587158
919.705000	-1.682454
919.911000	-1.883864
920.116000	-1.393971
920.322000	-7.326459
920.528000	-4.591979
920.733000	-4.864404
920.939000	-5.721204
921.145000	-4.769048
921.350000	-6.626993
921.556000	-5.296181
921.762000	-4.538817
921.968000	-6.044151
922.173000	-8.016286
922.379000	-8.196791
922.585000	-3.892778
922.790000	-4.118146
922.996000	-4.590562
923.202000	-5.983033
923.407000	-8.711204
923.613000	-5.467260
923.819000	-1.994919
924.024000	-2.094619
924.230000	-1.318806
924.436000	-4.503233
924.642000	9.107005
924.847000	4.212035
925.053000	-5.065382
925.259000	-7.857971
925.464000	-0.782748
925.670000	-2.533116
925.876000	-6.693485
926.081000	-7.322796
926.287000	-3.889339
926.493000	-0.689916
926.698000	-1.176027
926.904000	-1.891793
927.110000	-4.448736
927.316000	-4.832692
927.521000	3.234136
927.727000	-1.210754
927.933000	-4.350042
928.138000	-1.850878
928.344000	-8.877803
928.550000	-4.681450
928.755000	1.199930
928.961000	-6.142273
929.167000	-6.568378
929.372000	3.941056
929.578000	1.745830
929.784000	-7.100547
929.990000	-10.055578
930.195000	-8.750327
930.401000	-6.266084
930.607000	-2.784167
930.812000	-1.860671
931.018000	-7.869047
931.224000	-13.088075
931.429000	-7.732745
931.635000	-10.348052
931.841000	-10.169527
932.046000	-4.728537
932.252000	0.042323
932.458000	6.306251
932.664000	-0.100769
932.869000	-7.882608
933.075000	-7.501027
933.281000	-7.313478
933.486000	-2.638969
933.692000	-2.800631
933.898000	-7.092019
934.103000	1.253602
934.309000	-4.888447
934.515000	-5.439047
934.720000	-0.424665
934.926000	4.012643
935.132000	0.523810
935.338000	-3.000415
935.543000	-9.065279
935.749000	-10.957369
935.955000	-10.182614
936.160000	-9.465854
936.366000	-4.318174
936.572000	-3.717938
936.777000	0.052452
936.983000	2.506088
937.189000	-2.066514
937.394000	-8.538885
937.600000	1.852386
937.806000	5.670097
938.012000	-3.625071
938.217000	9.695600
938.423000	4.910385
938.629000	-4.612324
938.834000	-11.415905
939.040000	-10.702294
939.246000	-5.116776
939.451000	-6.539669
939.657000	-6.016403
939.863000	-5.902722
940.068000	0.662221
940.274000	-6.404832
940.480000	-3.828508
940.686000	-0.771349
940.891000	-4.072373
941.097000	21.499902
941.303000	5.125582
941.508000	-7.574227
941.714000	0.277312
941.920000	-12.037472
942.125000	-6.451181
942.331000	-3.426098
942.537000	6.171032
942.742000	7.335094
942.948000	-7.424277
943.154000	-9.175516
943.360000	-20.033031
943.565000	-5.325297
943.771000	8.460898
943.977000	8.403083
944.182000	-14.101096
944.388000	-13.936434
944.594000	-1.762489
944.799000	9.318029
945.005000	3.023691
945.211000	8.277117
945.416000	0.532537
945.622000	-17.339769
945.828000	-13.303515
946.034000	-1.836189
946.239000	1.510723
946.445000	-7.484285
946.651000	-18.963523
946.856000	-15.478091
947.062000	3.144449
947.268000	3.166496
947.473000	-10.924573
947.679000	-14.358160
947.885000	-3.063899
948.090000	-3.568184
948.296000	9.947629
948.502000	4.208829
948.708000	-4.098332
948.913000	-4.891982
949.119000	7.273224
949.325000	-0.173873
949.530000	-20.803900
949.736000	-26.181615
949.942000	-14.236180
950.147000	-15.582408
950.353000	-14.464465
950.559000	-6.830093
950.764000	17.993639
950.970000	10.098035
951.176000	-8.795727
951.382000	-18.850624
951.587000	-7.739807
951.793000	0.341019
951.999000	2.404912
952.204000	-9.583128
952.410000	-20.625869
952.616000	-5.572107
952.821000	-1.731586
953.027000	-11.831492
953.233000	-15.997355
953.438000	-15.581717
953.644000	3.528953
953.850000	-3.903026
954.056000	-13.603895
954.261000	-12.338494
954.467000	4.952374
954.673000	8.722788
954.878000	-2.357555
955.084000	-0.461241
955.290000	-21.711241
955.495000	-18.769409
955.701000	-10.544940
955.907000	2.303002
956.112000	1.470742
956.318000	13.283997
956.524000	16.497226
956.730000	0.084773
956.935000	-9.268163
957.141000	-10.331209
957.347000	-0.199954
957.552000	-5.336054
957.758000	-28.183436
957.964000	-34.815609
958.169000	5.883870
958.375000	9.681762
958.581000	-3.710480
958.786000	-18.379907
958.992000	-24.653677
959.198000	-4.390693
959.404000	-2.589349
959.609000	-10.223122
959.815000	-16.734292
960.021000	2.212434
960.226000	2.843533
960.432000	-20.864160
960.638000	-17.232574
960.843000	-11.064287
961.049000	-10.661573
961.255000	0.094069
961.460000	-10.958932
961.666000	-32.054421
961.872000	-19.526496
962.078000	-14.533733
962.283000	-22.382155
962.489000	-19.755859
962.695000	-7.100118
962.900000	-8.018088
963.106000	-11.058024
963.312000	-9.207337
963.517000	-14.960760
963.723000	-24.281871
963.929000	-1.584165
964.134000	13.556787
964.340000	-9.422421
964.546000	-15.574154
964.752000	-17.837046
964.957000	-24.950480
965.163000	-4.103788
965.369000	-0.959459
965.574000	-0.610345
965.780000	-5.641418
966.000000	-11.399915
966.220000	-3.509168
966.440000	-2.073000
966.661000	5.598020
966.881000	-15.671251
967.101000	-34.994075
967.321000	-37.755136
967.541000	-11.787117
967.761000	-13.428124
967.981000	-6.653086
968.202000	-3.732067
968.422000	3.206242
968.642000	-0.269574
968.862000	0.117946
969.082000	-11.366357
969.302000	0.940549
969.522000	-2.692939
969.743000	9.119490
969.963000	-7.480457
970.183000	-22.727358
970.403000	-30.685711
970.623000	-25.189712
970.843000	3.843348
971.063000	-0.293749
971.284000	-16.338781
971.504000	-23.252337
971.724000	-9.735448
971.944000	-19.890801
972.164000	-31.694869
972.384000	-23.607924
972.604000	-39.705278
972.825000	-43.133216
973.045000	-35.673732
973.265000	21.511438
973.485000	17.827118
973.705000	-4.880907
973.925000	-10.048408
974.145000	-42.868007
974.365000	-13.611328
974.586000	-9.874763
974.806000	-29.925007
975.026000	-7.998438
975.246000	-13.991606
975.466000	-23.095063
975.686000	-4.147169
975.906000	-12.740121
976.127000	-37.323540
976.347000	-26.216252
976.567000	4.133198
976.787000	5.644493
977.007000	-16.953642
977.227000	-16.076881
977.447000	-16.260756
977.668000	-43.108251
977.888000	-19.335870
978.108000	-16.656527
978.328000	-2.527778
978.548000	26.645464
978.768000	20.666882
978.988000	8.061236
979.209000	-26.206315
979.429000	-35.951783
979.649000	-3.144905
979.869000	-20.432434
980.089000	-40.237026
980.309000	-28.264377
980.529000	-32.048990
980.750000	-21.631903
980.970000	-44.295300
981.190000	-24.461846
981.410000	-25.291556
981.630000	-33.883323
981.850000	-27.257110
982.070000	-7.429877
982.291000	-31.924912
982.511000	-42.101039
982.731000	-7.556480
982.951000	-24.476650
983.171000	-19.778030
983.391000	-8.212611
983.611000	4.128136
983.832000	-27.249065
984.052000	-48.665015
984.272000	-19.778882
984.492000	-2.514620
984.712000	-8.678862
984.932000	-39.262914
985.152000	-58.561062
985.373000	-43.279980
985.593000	-30.225456
985.813000	-26.946564
986.033000	-19.184134
986.253000	21.124082
986.473000	17.247740
986.693000	-26.090706
986.914000	-29.601588
987.134000	18.585910
987.354000	-30.891248
987.574000	198.495278
987.794000	140.831681
988.014000	-36.916275
988.234000	-16.933702
988.455000	-6.362141
988.675000	-2.242049
988.895000	-11.773138
989.115000	-37.145977
989.335000	-36.120819
989.555000	-9.035065
989.775000	-42.310072
989.995000	-29.699579
990.216000	-7.395301
990.436000	-2.335262
990.656000	12.166404
990.876000	-23.550981
991.096000	-6.116428
991.316000	19.263751
991.536000	-17.795442
991.757000	-29.440221
991.977000	-74.943100
992.197000	-5.507906
992.417000	-8.243670
992.637000	-75.871914
992.857000	-85.950352
993.077000	-66.058119
993.298000	-40.831908
993.518000	-32.303854
993.738000	-81.100537
993.958000	-37.808706
994.178000	-44.079884
994.398000	-28.895226
994.618000	-70.014298
994.839000	-126.812165
995.059000	-25.691891
995.279000	37.065574
995.499000	-22.763257
995.719000	-1.892602
995.939000	-13.053362
996.159000	-28.238175
996.380000	-3.117863
996.600000	-60.989972
996.820000	-30.680785
997.040000	21.008124
997.260000	-50.585451
997.480000	-37.543256
997.700000	-96.689443
997.921000	-64.753470
998.141000	29.777549
998.361000	26.360233
998.581000	-31.559987
998.801000	-79.274462
999.021000	-68.294727
999.241000	-37.794251
999.462000	-61.152411
999.682000	-109.003703
999.902000	-53.287579
1000.122000	-47.475163
1000.342000	-117.696190
1000.562000	-14.786915
1000.782000	-6.444871
1001.003000	-1026.078247
