Wavelength	Irradiance
(nm)	(mW/cm2/nm)

294.396000	0.000000
294.577000	0.000000
294.757000	0.000000
294.938000	-0.000000
295.118000	0.000000
295.299000	0.000000
295.479000	-0.000000
295.660000	-0.000000
295.840000	-0.000000
296.021000	-0.000000
296.202000	-0.000000
296.382000	-0.000000
296.563000	-0.000000
296.743000	-0.000000
296.924000	0.000000
297.104000	0.000000
297.285000	-0.000000
297.465000	-0.000000
297.646000	-0.000000
297.826000	0.000000
298.007000	0.000000
298.187000	0.000000
298.368000	-0.000000
298.548000	0.000000
298.729000	0.000000
298.909000	0.000000
299.090000	-0.000000
299.270000	-0.000000
299.451000	-0.000000
299.631000	-0.000000
299.812000	-0.000000
299.992000	0.000000
300.173000	0.000000
300.353000	-0.000000
300.534000	0.000000
300.714000	0.000000
300.895000	0.000000
301.075000	0.000000
301.256000	0.000000
301.436000	-0.000000
301.617000	0.000000
301.797000	-0.000000
301.978000	0.000000
302.159000	0.000000
302.339000	0.000000
302.520000	-0.000000
302.700000	-0.000000
302.881000	0.000000
303.061000	0.000000
303.242000	0.000000
303.422000	0.000000
303.603000	-0.000000
303.783000	-0.000000
303.964000	0.000000
304.144000	-0.000000
304.325000	-0.000000
304.505000	0.000000
304.686000	0.000000
304.866000	0.000000
305.047000	0.000000
305.227000	-0.000000
305.408000	-0.000000
305.588000	-0.000000
305.769000	-0.000000
305.949000	-0.000000
306.130000	-0.000000
306.310000	-0.000000
306.491000	-0.000000
306.671000	0.000000
306.852000	-0.000000
307.032000	-0.000000
307.213000	0.000000
307.393000	-0.000000
307.574000	0.000000
307.755000	0.000000
307.935000	0.000000
308.116000	-0.000000
308.296000	-0.000000
308.477000	0.000000
308.657000	0.000000
308.838000	0.000000
309.018000	0.000000
309.199000	-0.000000
309.379000	-0.000000
309.560000	0.000000
309.740000	0.000000
309.921000	0.000000
310.101000	0.000000
310.282000	-0.000000
310.462000	-0.000000
310.643000	-0.000000
310.823000	-0.000000
311.004000	-0.000000
311.184000	-0.000000
311.365000	0.000000
311.545000	0.000000
311.726000	0.000000
311.906000	0.000000
312.087000	0.000000
312.267000	-0.000000
312.448000	-0.000000
312.628000	-0.000000
312.809000	-0.000000
312.989000	-0.000000
313.170000	-0.000000
313.344000	0.000000
313.518000	-0.000000
313.691000	-0.000000
313.865000	-0.000000
314.039000	-0.000000
314.213000	-0.000000
314.387000	-0.000000
314.560000	-0.000000
314.734000	-0.000000
314.908000	-0.000000
315.082000	-0.000000
315.255000	0.000000
315.429000	0.000000
315.603000	0.000000
315.777000	-0.000000
315.951000	0.000000
316.124000	-0.000000
316.298000	-0.000000
316.472000	-0.000000
316.646000	-0.000000
316.820000	-0.000000
316.993000	0.000000
317.167000	-0.000000
317.341000	-0.000000
317.515000	-0.000000
317.688000	-0.000000
317.862000	-0.000000
318.036000	-0.000000
318.210000	-0.000000
318.384000	-0.000000
318.557000	-0.000000
318.731000	-0.000000
318.905000	0.000000
319.079000	0.000000
319.253000	-0.000000
319.426000	0.000000
319.600000	0.000000
319.774000	-0.000000
319.948000	-0.000000
320.122000	0.000000
320.295000	0.000000
320.469000	-0.000000
320.643000	-0.000000
320.817000	-0.000000
320.990000	-0.000000
321.164000	-0.000000
321.338000	-0.000000
321.512000	-0.000000
321.686000	-0.000000
321.859000	-0.000000
322.033000	0.000000
322.207000	-0.000000
322.381000	0.000000
322.555000	0.000000
322.728000	0.000000
322.902000	-0.000000
323.076000	-0.000000
323.250000	-0.000000
323.423000	-0.000000
323.597000	-0.000000
323.771000	-0.000000
323.945000	-0.000000
324.119000	-0.000000
324.292000	0.000000
324.466000	-0.000000
324.640000	0.000000
324.814000	0.000000
324.988000	0.000000
325.161000	0.000000
325.335000	-0.000000
325.509000	-0.000000
325.683000	0.000000
325.856000	0.000000
326.030000	-0.000000
326.204000	-0.000000
326.378000	-0.000000
326.552000	-0.000000
326.725000	-0.000000
326.899000	-0.000000
327.073000	-0.000000
327.247000	-0.000000
327.421000	0.000000
327.594000	0.000000
327.768000	-0.000000
327.942000	-0.000000
328.116000	0.000000
328.289000	0.000000
328.463000	0.000000
328.637000	0.000000
328.811000	-0.000000
328.985000	-0.000000
329.158000	0.000000
329.332000	-0.000000
329.506000	0.000000
329.680000	-0.000000
329.854000	-0.000000
330.027000	0.000000
330.201000	0.000000
330.375000	0.000000
330.549000	0.000000
330.723000	0.000000
330.896000	-0.000000
331.070000	-0.000000
331.244000	-0.000000
331.418000	-0.000000
331.591000	0.000000
331.765000	-0.000000
331.939000	-0.000000
332.113000	0.000000
332.287000	-0.000000
332.460000	0.000000
332.634000	0.000000
332.808000	-0.000000
332.982000	-0.000000
333.156000	-0.000000
333.329000	0.000000
333.503000	-0.000000
333.677000	-0.000000
333.851000	-0.000000
334.024000	0.000000
334.198000	-0.000000
334.372000	-0.000000
334.546000	-0.000000
334.720000	-0.000000
334.893000	-0.000000
335.067000	0.000000
335.241000	0.000000
335.415000	-0.000000
335.589000	-0.000000
335.762000	-0.000000
335.936000	-0.000000
336.110000	-0.000000
336.284000	-0.000000
336.458000	0.000000
336.631000	-0.000000
336.805000	-0.000000
336.979000	-0.000000
337.153000	-0.000000
337.326000	-0.000000
337.500000	0.000000
337.674000	0.000000
337.848000	-0.000000
338.022000	0.000000
338.195000	-0.000000
338.369000	-0.000000
338.543000	-0.000000
338.717000	-0.000000
338.891000	0.000000
339.064000	0.000000
339.238000	0.000000
339.412000	-0.000000
339.586000	-0.000000
339.759000	-0.000000
339.933000	-0.000000
340.107000	0.000000
340.281000	0.000000
340.455000	-0.000000
340.628000	-0.000000
340.802000	-0.000000
340.976000	0.000000
341.150000	-0.000000
341.324000	-0.000000
341.497000	-0.000000
341.671000	-0.000000
341.845000	-0.000000
342.019000	-0.000000
342.192000	-0.000000
342.366000	-0.000000
342.540000	-0.000000
342.714000	-0.000000
342.888000	-0.000000
343.061000	0.000000
343.235000	-0.000000
343.409000	-0.000000
343.583000	-0.000000
343.757000	-0.000000
343.930000	-0.000000
344.104000	-0.000000
344.278000	0.000000
344.452000	0.000000
344.626000	-0.000000
344.799000	-0.000000
344.973000	-0.000000
345.147000	-0.000000
345.321000	-0.000000
345.494000	-0.000000
345.668000	0.000000
345.842000	0.000000
346.016000	-0.000000
346.190000	0.000000
346.363000	0.000000
346.537000	0.000000
346.711000	0.000000
346.885000	-0.000000
347.059000	-0.000000
347.232000	0.000000
347.406000	0.000000
347.580000	-0.000000
347.754000	-0.000000
347.927000	0.000000
348.101000	0.000000
348.275000	-0.000000
348.449000	-0.000000
348.623000	-0.000000
348.796000	0.000000
348.970000	0.000000
349.144000	-0.000000
349.318000	-0.000000
349.492000	-0.000000
349.665000	-0.000000
349.839000	-0.000000
350.013000	-0.000000
350.187000	-0.000000
350.361000	-0.000000
350.534000	0.000000
350.708000	0.000000
350.882000	0.000000
351.056000	0.000000
351.229000	-0.000000
351.403000	-0.000000
351.577000	-0.000000
351.751000	-0.000000
351.925000	-0.000000
352.098000	-0.000000
352.272000	-0.000000
352.446000	-0.000000
352.620000	-0.000000
352.794000	-0.000000
352.967000	-0.000000
353.141000	0.000000
353.315000	0.000000
353.489000	-0.000000
353.662000	-0.000000
353.836000	-0.000000
354.010000	-0.000000
354.184000	0.000000
354.358000	-0.000000
354.531000	-0.000000
354.705000	-0.000000
354.879000	-0.000000
355.053000	-0.000000
355.227000	0.000000
355.400000	-0.000000
355.574000	0.000000
355.748000	0.000000
355.922000	-0.000000
356.095000	-0.000000
356.269000	0.000000
356.443000	-0.000000
356.617000	-0.000000
356.791000	-0.000000
356.964000	-0.000000
357.138000	-0.000000
357.312000	-0.000000
357.486000	-0.000000
357.660000	0.000000
357.833000	0.000000
358.007000	-0.000000
358.181000	-0.000000
358.355000	-0.000000
358.529000	-0.000000
358.702000	-0.000000
358.876000	-0.000000
359.050000	-0.000000
359.224000	-0.000000
359.397000	0.000000
359.571000	0.000000
359.745000	0.000000
359.919000	-0.000000
360.093000	0.025412
360.266000	0.116888
360.440000	0.167613
360.614000	0.218723
360.788000	0.123070
360.962000	-0.132127
361.135000	0.032878
361.309000	-0.062184
361.483000	-0.237202
361.657000	-0.183474
361.830000	-0.167109
362.004000	-0.001265
362.178000	-0.244134
362.352000	-0.180299
362.526000	0.019283
362.699000	0.037262
362.873000	-0.251723
363.047000	-0.246352
363.221000	-0.240824
363.395000	-0.102645
363.568000	-0.121481
363.742000	-0.137885
363.916000	-0.130356
364.090000	-0.239795
364.263000	-0.163710
364.437000	-0.219182
364.611000	0.069631
364.785000	0.004164
364.959000	-0.164081
365.132000	-0.143868
365.306000	-0.142061
365.480000	0.015042
365.656000	-0.050504
365.831000	-0.072261
366.007000	-0.070606
366.183000	-0.004244
366.358000	-0.133637
366.534000	-0.077632
366.710000	-0.184200
366.886000	-0.092623
367.061000	0.041127
367.237000	0.142195
367.413000	0.015511
367.588000	-0.217597
367.764000	-0.195813
367.940000	-0.234560
368.115000	-0.195710
368.291000	-0.213167
368.467000	-0.117530
368.643000	0.267192
368.818000	-0.160291
368.994000	-0.260065
369.170000	-0.164585
369.345000	-0.121458
369.521000	-0.158333
369.697000	-0.060896
369.872000	-0.151054
370.048000	-0.228344
370.224000	-0.209255
370.399000	-0.376958
370.575000	-0.289065
370.751000	-0.388888
370.927000	-0.377406
371.102000	-0.330334
371.278000	-0.224576
371.454000	-0.174127
371.629000	0.072390
371.805000	0.033946
371.981000	0.183693
372.156000	0.384094
372.332000	0.204679
372.508000	0.149180
372.683000	0.060198
372.859000	-0.069499
373.035000	-0.070245
373.211000	0.355425
373.386000	0.133157
373.562000	-0.263840
373.738000	-0.374034
373.913000	-0.520543
374.089000	-0.343513
374.265000	0.073163
374.440000	0.058749
374.616000	0.073653
374.792000	-0.103823
374.968000	0.270916
375.143000	0.030957
375.319000	-0.168801
375.495000	-0.198926
375.670000	-0.136610
375.846000	-0.025185
376.022000	-0.199095
376.197000	-0.135101
376.373000	-0.340164
376.549000	-0.373915
376.724000	-0.387749
376.900000	-0.222190
377.076000	-0.091798
377.252000	0.147125
377.427000	0.291797
377.603000	-0.065480
377.779000	-0.074238
377.954000	-0.204992
378.130000	-0.072935
378.306000	-0.053427
378.481000	-0.081969
378.657000	-0.158811
378.833000	-0.249957
379.009000	-0.123115
379.184000	0.047581
379.360000	0.064315
379.536000	0.007205
379.711000	-0.121597
379.887000	-0.241062
380.063000	-0.261354
380.238000	-0.260317
380.414000	0.030030
380.590000	-0.197811
380.765000	-0.194320
380.941000	-0.007117
381.117000	0.041014
381.293000	-0.108643
381.468000	-0.277652
381.644000	-0.177006
381.820000	-0.086454
381.995000	0.052953
382.171000	0.260265
382.347000	0.219737
382.522000	-0.161379
382.698000	0.157724
382.874000	0.168839
383.050000	-0.201380
383.225000	0.226723
383.401000	0.384834
383.577000	-0.010085
383.752000	-0.173797
383.928000	-0.102916
384.104000	-0.041909
384.279000	-0.099794
384.455000	-0.026703
384.631000	-0.083042
384.806000	-0.301280
384.982000	-0.018319
385.158000	-0.052588
385.334000	0.062980
385.509000	-0.077297
385.685000	-0.381147
385.861000	-0.115640
386.036000	-0.240766
386.212000	-0.423622
386.388000	-0.166138
386.563000	-0.160249
386.739000	-0.263334
386.915000	-0.474038
387.090000	-0.174320
387.266000	0.035308
387.442000	0.156619
387.618000	0.071391
387.793000	-0.241429
387.969000	-0.416286
388.145000	-0.296897
388.320000	-0.297685
388.496000	-0.301074
388.672000	-0.441590
388.847000	-0.043186
389.023000	0.018227
389.199000	-0.297379
389.375000	-0.068075
389.550000	-0.177858
389.726000	-0.092610
389.902000	-0.295436
390.077000	-0.107968
390.253000	-0.068125
390.429000	-0.127260
390.604000	-0.026387
390.780000	0.020728
390.956000	-0.171400
391.131000	-0.198444
391.307000	0.152019
391.483000	-0.047916
391.659000	-0.166194
391.834000	0.028720
392.010000	-0.181645
392.186000	-0.266600
392.361000	-0.174007
392.537000	-0.335167
392.713000	0.251887
392.888000	0.446517
393.064000	0.060922
393.240000	-0.133690
393.416000	-0.234868
393.591000	-0.306858
393.767000	-0.310545
393.943000	-0.234337
394.118000	0.057260
394.294000	0.248851
394.470000	0.080967
394.645000	0.152158
394.821000	0.387260
394.997000	0.009257
395.172000	-0.027626
395.348000	-0.143674
395.524000	-0.382851
395.700000	-0.213649
395.875000	-0.022200
396.051000	-0.082162
396.227000	-0.164236
396.402000	-0.207375
396.578000	-0.088272
396.754000	-0.218826
396.929000	-0.168278
397.105000	0.082060
397.281000	0.032553
397.457000	-0.094778
397.632000	-0.080933
397.808000	-0.345186
397.984000	-0.470665
398.159000	-0.427331
398.335000	-0.216434
398.511000	0.288478
398.686000	0.086582
398.862000	-0.139906
399.038000	-0.305975
399.213000	-0.047146
399.389000	-0.368368
399.565000	-0.067835
399.741000	0.182822
399.916000	0.104557
400.092000	0.278741
400.268000	-0.014013
400.443000	-0.135359
400.619000	0.217458
400.795000	0.104609
400.970000	-0.098127
401.146000	-0.167596
401.322000	0.153273
401.497000	0.523834
401.673000	0.221222
401.849000	-0.055445
402.025000	0.142519
402.200000	-0.021768
402.376000	-0.172786
402.552000	0.250611
402.727000	0.113846
402.903000	-0.200407
403.079000	-0.152003
403.254000	0.177703
403.430000	0.156198
403.606000	0.085224
403.782000	0.072413
403.957000	-0.197473
404.133000	-0.407461
404.309000	-0.256661
404.484000	0.041988
404.660000	0.039553
404.841000	-0.054898
405.023000	0.219660
405.204000	0.161731
405.385000	-0.188057
405.566000	-0.263624
405.748000	-0.063055
405.929000	0.192694
406.110000	0.152119
406.292000	-0.011390
406.473000	0.059628
406.654000	-0.136826
406.835000	-0.011469
407.017000	-0.072365
407.198000	-0.053982
407.379000	-0.016275
407.560000	-0.031397
407.742000	-0.051890
407.923000	0.034361
408.104000	-0.107660
408.286000	-0.003792
408.467000	0.092045
408.648000	-0.127743
408.829000	-0.205435
409.011000	-0.003786
409.192000	-0.171022
409.373000	-0.016447
409.555000	0.110085
409.736000	0.152080
409.917000	0.092092
410.098000	0.068925
410.280000	0.138096
410.461000	0.093142
410.642000	0.135617
410.823000	0.356953
411.005000	0.232876
411.186000	0.098446
411.367000	0.018708
411.549000	-0.011217
411.730000	0.230506
411.911000	0.314701
412.092000	0.157501
412.274000	0.116928
412.455000	0.109770
412.636000	0.171595
412.818000	0.013526
412.999000	-0.064728
413.180000	0.028259
413.361000	0.055495
413.543000	-0.025759
413.724000	-0.025693
413.905000	0.042824
414.087000	-0.042913
414.268000	0.001213
414.449000	0.030373
414.630000	-0.086595
414.812000	-0.157016
414.993000	0.237724
415.174000	0.397201
415.355000	0.217441
415.537000	0.003628
415.718000	0.318393
415.899000	0.177431
416.081000	0.030051
416.262000	0.274704
416.443000	0.178289
416.624000	0.201753
416.806000	0.371988
416.987000	0.527606
417.168000	0.426486
417.350000	0.216179
417.531000	0.184013
417.712000	0.233856
417.893000	0.490084
418.075000	0.601741
418.256000	0.373473
418.437000	0.491637
418.618000	0.589500
418.800000	0.692789
418.981000	0.470171
419.162000	0.539734
419.344000	0.717689
419.525000	0.614932
419.706000	0.515976
419.887000	0.690140
420.069000	0.916460
420.250000	0.802724
420.431000	0.767752
420.613000	0.667115
420.794000	0.468933
420.975000	0.849454
421.156000	0.686289
421.338000	0.652797
421.519000	0.664424
421.700000	0.614498
421.882000	0.675710
422.063000	0.876387
422.244000	1.351826
422.425000	1.096164
422.607000	0.777600
422.788000	0.762177
422.969000	0.742824
423.150000	0.717839
423.332000	0.673597
423.513000	0.920188
423.694000	0.974640
423.876000	1.023509
424.057000	1.117907
424.238000	1.183590
424.419000	1.260556
424.601000	1.139460
424.782000	1.166737
424.963000	1.401386
425.145000	1.273292
425.326000	1.293628
425.507000	1.376041
425.688000	1.291226
425.870000	1.133291
426.051000	1.095023
426.232000	1.179428
426.413000	1.219419
426.595000	1.257657
426.776000	1.327502
426.957000	1.455824
427.139000	1.477839
427.320000	1.536250
427.501000	1.710310
427.682000	1.626571
427.864000	1.741012
428.045000	1.979848
428.226000	1.875559
428.408000	1.566015
428.589000	1.769160
428.770000	1.826296
428.951000	1.722235
429.133000	1.600052
429.314000	1.787158
429.495000	1.844133
429.677000	1.869370
429.858000	1.969703
430.039000	2.105594
430.220000	2.298160
430.402000	2.335366
430.583000	2.090237
430.764000	2.130900
430.945000	2.340727
431.127000	2.500383
431.308000	2.401136
431.489000	2.639737
431.671000	2.743841
431.852000	2.681475
432.033000	2.695671
432.214000	2.845314
432.396000	2.870091
432.577000	2.707698
432.758000	2.666215
432.940000	2.855511
433.121000	3.023611
433.302000	3.025123
433.483000	3.258359
433.665000	3.476456
433.846000	3.429742
434.027000	3.330519
434.208000	3.323872
434.390000	3.450738
434.571000	4.018584
434.752000	4.444155
434.934000	4.252311
435.115000	4.262934
435.296000	4.438514
435.477000	4.346321
435.659000	4.141686
435.840000	4.250885
436.026000	4.321123
436.211000	4.316386
436.397000	4.048339
436.582000	4.248994
436.768000	4.579350
436.953000	4.535352
437.139000	4.747258
437.325000	5.086325
437.510000	5.037028
437.696000	5.349564
437.881000	5.440051
438.067000	5.164078
438.252000	5.347315
438.438000	5.441902
438.624000	5.588617
438.809000	5.790053
438.995000	5.996401
439.180000	6.079793
439.366000	6.173076
439.551000	6.292428
439.737000	6.519252
439.923000	6.717953
440.108000	6.771706
440.294000	6.981223
440.479000	7.275931
440.665000	7.482155
440.850000	7.523221
441.036000	7.718723
441.222000	7.866532
441.407000	7.905559
441.593000	8.201569
441.778000	8.585835
441.964000	8.908689
442.149000	8.686829
442.335000	8.907913
442.521000	9.275875
442.706000	9.675165
442.892000	9.842032
443.077000	10.021497
443.263000	10.282041
443.448000	10.455687
443.634000	10.670704
443.820000	11.262941
444.005000	11.360762
444.191000	11.431903
444.376000	11.725633
444.562000	12.164799
444.747000	12.614540
444.933000	12.816140
445.119000	12.877380
445.304000	12.957472
445.490000	13.487078
445.675000	13.790834
445.861000	13.915496
446.046000	14.168749
446.232000	14.513999
446.418000	14.837781
446.603000	15.137356
446.789000	15.495110
446.974000	15.615319
447.160000	15.709507
447.345000	16.047492
447.531000	16.221265
447.717000	16.806156
447.902000	17.298609
448.088000	17.369678
448.273000	17.344974
448.459000	17.557773
448.644000	17.591384
448.830000	17.735937
449.016000	17.923078
449.201000	18.161850
449.387000	18.608863
449.572000	18.815070
449.758000	18.615524
449.943000	18.771165
450.129000	18.800755
450.315000	18.891686
450.500000	18.871998
450.686000	19.017161
450.871000	19.037430
451.057000	19.239826
451.243000	19.255736
451.428000	19.251521
451.614000	19.067657
451.799000	18.920098
451.985000	19.184075
452.170000	19.185804
452.356000	18.856261
452.542000	18.832812
452.727000	18.791527
452.913000	18.542805
453.098000	18.572904
453.284000	18.725584
453.469000	18.447815
453.655000	18.371941
453.841000	18.070055
454.026000	17.629856
454.212000	17.389414
454.397000	17.293998
454.583000	17.085048
454.768000	16.767353
454.954000	16.646568
455.140000	16.460524
455.325000	16.104168
455.511000	15.964890
455.696000	15.814145
455.882000	15.717565
456.067000	15.815882
456.253000	15.339212
456.439000	14.948109
456.624000	14.696303
456.810000	14.400842
456.995000	14.396711
457.181000	14.145144
457.366000	14.069267
457.552000	13.877571
457.738000	13.732162
457.923000	13.600931
458.109000	13.714311
458.294000	13.476709
458.480000	13.228277
458.665000	13.047089
458.851000	12.773884
459.037000	12.430723
459.222000	12.502924
459.408000	12.430004
459.593000	12.210838
459.779000	12.280700
459.964000	12.296578
460.150000	12.370185
460.336000	12.192798
460.521000	11.790684
460.707000	11.563900
460.892000	11.323528
461.078000	11.526686
461.263000	11.618834
461.449000	11.406027
461.635000	11.247833
461.820000	11.285865
462.006000	11.277363
462.191000	11.140199
462.377000	10.826736
462.562000	11.150416
462.748000	11.329978
462.934000	10.792193
463.119000	10.497962
463.305000	10.709640
463.490000	10.556013
463.676000	10.625522
463.861000	10.629169
464.047000	10.465621
464.233000	10.520397
464.418000	10.433497
464.604000	10.131296
464.789000	10.322673
464.975000	10.313719
465.160000	10.167635
465.346000	10.099470
465.532000	9.950583
465.717000	9.879390
465.903000	10.046858
466.088000	9.953929
466.274000	9.666526
466.459000	9.659485
466.645000	9.937513
466.831000	9.679261
467.016000	9.694170
467.202000	9.575751
467.387000	9.338376
467.573000	9.092964
467.758000	9.342394
467.944000	9.185303
468.130000	8.956225
468.315000	9.008075
468.501000	9.039043
468.686000	8.857094
468.872000	8.779203
469.057000	8.805627
469.243000	8.681166
469.429000	8.546983
469.614000	8.275285
469.800000	8.110437
469.985000	8.242615
470.171000	8.236791
470.356000	8.101013
470.542000	8.067436
470.728000	7.925096
470.913000	7.867849
471.099000	7.958581
471.284000	7.796583
471.470000	7.669718
471.655000	7.602674
471.841000	7.462266
472.027000	7.262191
472.212000	7.471434
472.398000	7.497752
472.583000	7.307177
472.769000	7.240168
472.954000	7.139420
473.140000	6.895045
473.326000	6.809343
473.511000	7.067955
473.697000	7.031704
473.882000	6.878109
474.068000	6.760295
474.253000	6.624174
474.439000	6.638279
474.625000	6.635072
474.810000	6.657675
474.996000	6.634437
475.181000	6.435486
475.367000	6.543694
475.552000	6.765556
475.738000	6.401399
475.924000	6.387217
476.109000	6.423921
476.295000	6.264798
476.480000	6.314162
476.666000	6.283153
476.851000	6.240557
477.037000	6.310872
477.223000	6.171735
477.408000	6.135908
477.594000	6.026569
477.779000	6.162372
477.965000	6.150214
478.151000	6.032642
478.336000	6.163572
478.522000	6.073818
478.707000	6.012449
478.893000	6.107233
479.078000	5.994918
479.264000	6.021589
479.450000	6.128162
479.635000	6.308158
479.821000	6.191675
480.006000	6.197745
480.192000	6.150624
480.377000	6.201753
480.563000	6.263906
480.749000	6.088293
480.934000	6.106905
481.120000	6.243667
481.305000	6.290407
481.491000	6.228165
481.676000	6.337439
481.862000	6.416921
482.048000	6.242552
482.233000	6.208313
482.419000	6.181104
482.604000	6.167689
482.790000	6.221689
482.975000	6.360426
483.161000	6.486518
483.347000	6.424247
483.532000	6.482785
483.718000	6.245730
483.903000	6.274282
484.089000	6.354185
484.274000	6.234962
484.460000	6.414317
484.646000	6.484821
484.831000	6.424860
485.017000	6.467352
485.202000	6.510452
485.388000	6.782858
485.573000	6.744554
485.759000	6.549070
485.945000	6.721939
486.130000	6.606162
486.316000	6.710508
486.501000	6.801410
486.687000	6.603280
486.872000	6.529151
487.058000	6.756178
487.244000	6.785317
487.429000	6.682096
487.615000	6.827311
487.800000	6.966588
487.986000	6.858624
488.171000	7.005821
488.357000	6.891925
488.543000	6.947892
488.728000	7.068262
488.914000	7.016402
489.099000	6.913448
489.285000	6.889132
489.470000	7.121454
489.656000	7.165456
489.842000	7.181761
490.027000	7.229874
490.213000	7.156217
490.398000	6.953044
490.584000	7.213679
490.769000	7.267838
490.955000	7.387903
491.141000	7.423825
491.326000	7.434282
491.512000	7.604226
491.697000	7.453701
491.883000	7.354608
492.068000	7.423036
492.254000	7.470952
492.440000	7.598245
492.625000	7.523814
492.811000	7.531024
492.996000	7.646417
493.182000	7.730213
493.367000	7.569724
493.553000	7.521864
493.739000	7.679092
493.924000	7.887586
494.110000	7.883206
494.295000	7.736060
494.481000	7.927177
494.666000	7.982515
494.852000	8.125510
495.038000	7.958533
495.223000	7.970426
495.409000	8.088236
495.594000	8.065724
495.780000	8.100994
495.965000	8.095523
496.151000	8.334642
496.337000	8.398393
496.522000	8.204727
496.708000	8.437126
496.893000	8.562632
497.079000	8.440831
497.264000	8.467084
497.450000	8.560236
497.636000	8.629116
497.821000	8.467874
498.007000	8.674638
498.192000	8.774856
498.378000	8.657696
498.563000	8.609569
498.749000	8.755920
498.935000	8.841053
499.120000	9.007370
499.306000	8.825442
499.491000	8.750894
499.677000	8.969462
499.862000	9.120461
500.048000	9.144990
500.234000	9.110029
500.419000	9.170773
500.605000	9.313130
500.790000	9.212866
500.976000	9.115509
501.161000	9.118156
501.347000	9.328460
501.533000	9.431337
501.718000	9.322131
501.904000	9.367699
502.089000	9.605103
502.275000	9.561435
502.460000	9.397579
502.646000	9.500113
502.832000	9.569780
503.017000	9.585701
503.203000	9.464454
503.388000	9.458125
503.574000	9.683912
503.759000	9.742649
503.945000	9.820718
504.131000	9.812143
504.316000	9.763525
504.502000	9.803075
504.687000	9.834383
504.873000	9.774826
505.058000	9.761618
505.244000	9.737013
505.430000	9.882247
505.615000	10.025262
505.801000	10.103581
505.986000	9.883679
506.172000	10.019844
506.358000	10.046115
506.543000	10.040673
506.729000	10.324802
506.914000	10.330291
507.100000	10.420849
507.285000	10.227456
507.471000	10.190155
507.657000	10.470444
507.842000	10.292177
508.028000	10.183488
508.213000	10.274663
508.399000	10.380909
508.584000	10.483197
508.770000	10.416199
508.956000	10.405305
509.141000	10.484389
509.327000	10.657032
509.512000	10.521505
509.698000	10.521893
509.883000	10.712725
510.069000	10.633656
510.255000	10.676699
510.440000	10.743950
510.626000	10.677381
510.811000	10.659596
510.997000	10.789335
511.182000	11.027608
511.368000	10.950564
511.554000	10.651300
511.739000	10.749145
511.925000	10.960275
512.110000	10.949964
512.296000	11.148825
512.481000	11.171963
512.667000	11.103577
512.853000	10.925275
513.038000	10.979153
513.224000	10.981828
513.409000	10.949151
513.595000	11.084377
513.780000	10.931391
513.966000	11.066009
514.152000	11.053381
514.337000	10.968548
514.523000	10.985300
514.708000	11.120987
514.894000	11.197369
515.079000	11.108133
515.265000	11.307950
515.451000	11.298588
515.636000	11.116412
515.822000	11.281504
516.007000	11.158405
516.193000	11.316112
516.378000	11.449896
516.564000	11.361180
516.750000	11.435437
516.935000	11.499270
517.121000	11.479483
517.306000	11.539244
517.492000	11.530158
517.677000	11.342786
517.863000	11.362509
518.049000	11.457647
518.234000	11.427898
518.420000	11.643049
518.605000	11.822284
518.791000	11.747709
518.976000	11.576840
519.162000	11.504432
519.348000	11.648071
519.533000	11.636446
519.719000	11.902294
519.904000	11.802701
520.090000	11.732947
520.275000	11.978942
520.461000	12.000908
520.647000	11.818383
520.832000	11.595212
521.018000	11.618139
521.203000	11.608305
521.389000	11.478416
521.574000	11.617069
521.760000	11.757702
521.946000	11.786348
522.131000	11.754025
522.317000	11.783648
522.502000	11.716721
522.688000	11.872238
522.873000	11.766626
523.059000	11.803290
523.245000	11.875446
523.430000	11.745204
523.616000	11.787979
523.801000	11.807130
523.987000	11.867425
524.172000	11.985216
524.358000	12.100558
524.544000	11.992022
524.729000	11.969058
524.915000	12.114841
525.100000	12.016069
525.286000	12.046274
525.471000	12.076727
525.657000	12.133773
525.843000	12.017713
526.028000	12.094077
526.214000	12.014531
526.399000	11.957910
526.585000	11.897631
526.770000	11.898020
526.956000	12.057030
527.142000	12.018951
527.327000	12.190989
527.513000	12.096300
527.698000	12.126047
527.884000	12.204567
528.069000	12.250391
528.255000	12.264667
528.441000	12.082126
528.626000	12.177297
528.812000	12.415927
528.997000	12.252078
529.183000	12.097891
529.368000	12.196027
529.554000	12.325277
529.740000	12.378358
529.925000	12.333306
530.111000	12.247754
530.296000	12.389113
530.482000	12.497008
530.667000	12.424581
530.853000	12.547619
531.039000	12.448913
531.224000	12.469178
531.410000	12.560422
531.595000	12.501237
531.781000	12.491950
531.967000	12.295227
532.152000	12.403277
532.338000	12.378903
532.523000	12.296573
532.709000	12.336331
532.894000	12.477111
533.080000	12.454251
533.266000	12.339478
533.451000	12.377684
533.637000	12.473682
533.822000	12.753089
534.008000	12.539402
534.193000	12.529767
534.379000	12.615584
534.565000	12.527947
534.750000	12.484281
534.936000	12.785277
535.121000	12.694146
535.307000	12.737846
535.492000	12.742547
535.678000	12.568082
535.864000	12.772188
536.049000	13.099189
536.235000	12.860144
536.420000	12.811841
536.606000	12.696462
536.791000	12.612716
536.977000	12.562484
537.163000	12.775502
537.348000	12.955573
537.534000	13.050681
537.719000	12.849878
537.905000	12.699101
538.090000	12.999276
538.276000	12.975606
538.462000	12.874035
538.647000	12.943166
538.833000	12.967018
539.018000	13.066254
539.204000	12.995893
539.389000	12.838576
539.575000	13.173706
539.761000	13.089491
539.946000	12.849886
540.132000	13.123507
540.317000	12.948000
540.503000	12.986915
540.688000	13.139645
540.874000	13.519904
541.060000	13.684379
541.245000	13.406860
541.431000	13.199904
541.616000	13.395673
541.802000	13.337396
541.987000	13.407114
542.173000	13.494562
542.359000	13.310908
542.544000	13.434206
542.730000	13.271728
542.915000	13.258191
543.101000	13.482523
543.286000	13.316329
543.472000	13.229302
543.658000	13.420671
543.843000	13.449120
544.029000	13.709835
544.214000	13.597688
544.400000	13.325321
544.585000	13.408075
544.771000	13.587260
544.957000	13.798931
545.142000	13.922588
545.328000	13.973282
545.513000	14.036940
545.699000	13.903978
545.884000	13.816632
546.070000	13.674106
546.261000	13.605379
546.451000	13.519134
546.642000	13.399531
546.833000	13.649397
547.023000	13.476866
547.214000	13.485857
547.405000	13.634289
547.595000	13.884544
547.786000	13.877823
547.977000	13.734562
548.167000	13.625302
548.358000	13.636889
548.549000	14.032980
548.740000	13.789363
548.930000	13.450576
549.121000	13.626100
549.312000	13.558018
549.502000	13.467805
549.693000	13.727225
549.884000	13.792822
550.074000	13.878400
550.265000	13.760556
550.456000	13.905535
550.646000	14.095010
550.837000	14.109845
551.028000	13.892351
551.218000	14.010633
551.409000	13.961905
551.600000	14.001318
551.790000	14.139401
551.981000	13.907738
552.172000	13.936182
552.362000	14.324881
552.553000	14.417888
552.744000	14.102740
552.934000	14.173053
553.125000	14.099596
553.316000	14.055352
553.506000	14.587067
553.697000	14.389056
553.888000	14.251860
554.079000	14.453978
554.269000	14.570427
554.460000	14.170335
554.651000	14.169581
554.841000	14.072827
555.032000	14.184125
555.223000	14.219412
555.413000	14.325209
555.604000	14.378277
555.795000	14.382566
555.985000	14.574605
556.176000	14.553223
556.367000	14.246321
556.557000	14.350642
556.748000	14.394145
556.939000	14.423634
557.129000	14.359834
557.320000	14.593504
557.511000	14.599796
557.701000	14.602459
557.892000	14.679169
558.083000	14.926534
558.273000	14.823452
558.464000	14.576419
558.655000	14.700612
558.845000	14.752569
559.036000	14.932984
559.227000	14.964600
559.418000	15.172823
559.608000	15.244229
559.799000	14.913443
559.990000	14.767532
560.180000	14.899792
560.371000	14.598599
560.562000	14.637906
560.752000	15.016060
560.943000	14.850787
561.134000	14.728917
561.324000	15.028546
561.515000	15.235724
561.706000	15.181130
561.896000	14.969466
562.087000	15.113239
562.278000	15.058923
562.468000	14.931023
562.659000	15.157375
562.850000	15.447128
563.040000	15.503133
563.231000	15.097428
563.422000	15.334765
563.612000	15.270320
563.803000	15.465847
563.994000	15.379027
564.185000	15.282660
564.375000	15.484600
564.566000	15.493556
564.757000	15.650438
564.947000	15.497996
565.138000	15.599014
565.329000	15.572629
565.519000	15.499308
565.710000	15.650637
565.901000	15.928005
566.091000	16.129843
566.282000	15.892235
566.473000	15.898040
566.663000	15.884564
566.854000	15.707195
567.045000	15.894551
567.235000	16.087543
567.426000	15.992420
567.617000	15.979270
567.807000	16.050386
567.998000	16.111408
568.189000	15.962031
568.379000	16.160043
568.570000	16.164558
568.761000	16.184419
568.951000	16.060844
569.142000	16.048122
569.333000	16.145824
569.524000	15.912085
569.714000	15.915530
569.905000	15.890679
570.096000	16.477010
570.286000	16.654324
570.477000	16.829813
570.668000	16.658955
570.858000	16.636293
571.049000	16.541662
571.240000	16.385705
571.430000	16.694851
571.621000	16.702929
571.812000	16.759373
572.002000	16.772336
572.193000	16.716242
572.384000	16.902962
572.574000	17.007587
572.765000	16.818805
572.956000	16.766150
573.146000	17.132793
573.337000	16.991446
573.528000	17.026093
573.718000	17.318418
573.909000	17.163467
574.100000	17.163548
574.290000	17.141762
574.481000	17.122196
574.672000	17.238189
574.863000	17.426902
575.053000	17.291099
575.244000	17.333999
575.435000	17.235806
575.625000	17.315089
575.816000	17.395516
576.007000	17.738348
576.197000	17.766267
576.388000	17.572408
576.579000	17.684439
576.769000	17.834568
576.960000	17.576685
577.155000	17.390212
577.350000	17.763719
577.545000	17.939254
577.740000	17.849452
577.935000	18.223006
578.130000	18.168693
578.326000	17.817583
578.521000	18.120768
578.716000	18.148225
578.911000	17.890851
579.106000	18.051102
579.301000	18.191342
579.496000	18.183374
579.691000	17.915158
579.886000	18.151716
580.081000	18.373266
580.276000	18.405991
580.471000	18.211803
580.666000	18.082639
580.861000	18.133878
581.057000	18.349739
581.252000	18.464976
581.447000	18.461260
581.642000	18.576540
581.837000	18.480686
582.032000	18.686471
582.227000	18.885224
582.422000	18.913589
582.617000	18.799422
582.812000	18.696688
583.007000	18.684370
583.202000	18.771547
583.397000	19.101734
583.592000	19.215061
583.788000	18.953596
583.983000	19.071077
584.178000	19.242704
584.373000	19.135637
584.568000	19.076376
584.763000	19.024346
584.958000	18.963148
585.153000	19.075687
585.348000	19.144335
585.543000	19.365029
585.738000	19.396836
585.933000	19.185760
586.128000	19.518900
586.324000	19.544234
586.519000	19.521450
586.714000	19.712700
586.909000	19.754203
587.104000	19.776938
587.299000	19.655892
587.494000	19.631342
587.689000	19.728027
587.884000	19.740007
588.079000	19.676674
588.274000	19.758267
588.469000	19.796329
588.664000	19.867707
588.859000	20.019614
589.055000	20.010196
589.250000	19.937535
589.445000	19.814176
589.640000	19.995045
589.835000	20.295124
590.030000	20.380483
590.225000	20.366835
590.420000	20.192531
590.615000	20.088568
590.810000	20.061772
591.005000	20.220387
591.200000	20.158764
591.395000	19.993883
591.591000	20.193065
591.786000	20.372452
591.981000	20.227081
592.176000	20.395431
592.371000	20.458150
592.566000	20.373193
592.761000	20.628795
592.956000	20.630775
593.151000	20.711382
593.346000	20.632220
593.541000	20.749500
593.736000	20.656714
593.931000	20.517800
594.126000	20.563678
594.322000	20.534147
594.517000	20.454792
594.712000	20.472622
594.907000	20.561833
595.102000	20.724388
595.297000	20.790835
595.492000	20.906352
595.687000	20.680683
595.882000	20.737958
596.077000	20.881007
596.272000	21.035452
596.467000	21.022162
596.662000	20.948730
596.857000	21.023368
597.053000	20.973258
597.248000	21.051876
597.443000	21.147400
597.638000	21.001970
597.833000	20.854756
598.028000	21.169140
598.223000	21.262524
598.418000	21.028633
598.613000	20.944325
598.808000	21.032982
599.003000	21.064746
599.198000	20.920940
599.393000	20.975957
599.589000	21.158350
599.784000	20.974752
599.979000	21.165500
600.174000	21.289768
600.369000	21.087947
600.564000	21.216012
600.759000	21.463182
600.954000	21.568944
601.149000	21.361855
601.344000	20.953914
601.539000	21.309686
601.734000	21.157777
601.929000	20.999157
602.124000	21.076656
602.320000	21.353360
602.515000	21.520714
602.710000	21.532763
602.905000	21.201168
603.100000	21.137015
603.295000	21.270770
603.490000	21.415248
603.685000	21.551208
603.880000	21.651838
604.075000	21.343130
604.270000	21.400031
604.465000	21.432780
604.660000	21.274951
604.856000	21.399253
605.051000	21.547952
605.246000	21.345702
605.441000	21.214062
605.636000	21.287943
605.831000	21.587098
606.026000	21.456356
606.221000	21.274679
606.416000	21.337084
606.611000	21.438397
606.806000	21.583202
607.001000	21.752018
607.196000	21.440392
607.391000	21.267650
607.587000	21.629574
607.782000	21.639258
607.977000	21.361684
608.172000	21.717077
608.367000	21.747490
608.562000	21.544357
608.757000	21.501881
608.952000	21.435563
609.147000	21.952292
609.342000	21.815174
609.537000	21.462387
609.732000	21.412900
609.927000	21.427614
610.122000	21.607314
610.318000	21.831295
610.513000	21.971558
610.708000	21.835333
610.903000	21.984199
611.098000	22.023963
611.293000	21.778125
611.488000	21.920219
611.683000	21.874534
611.878000	21.696159
612.073000	21.793670
612.268000	21.812595
612.463000	21.760119
612.658000	21.753219
612.854000	21.716685
613.049000	21.530518
613.244000	21.656636
613.439000	21.800577
613.634000	21.539352
613.829000	21.455745
614.024000	21.338686
614.219000	21.328286
614.414000	21.532272
614.609000	21.266804
614.804000	21.201681
614.999000	21.231069
615.194000	21.259393
615.389000	21.311313
615.585000	21.009778
615.780000	21.046976
615.975000	21.088977
616.170000	21.168127
616.365000	21.261090
616.560000	21.419524
616.755000	21.489566
616.950000	21.276348
617.145000	21.268681
617.340000	21.061083
617.535000	20.733708
617.730000	21.104315
617.925000	20.805637
618.120000	20.558662
618.316000	20.982136
618.511000	20.904366
618.706000	20.765480
618.901000	20.909820
619.096000	20.994504
619.291000	20.798065
619.486000	20.889136
619.681000	20.620975
619.876000	20.456060
620.071000	20.579828
620.266000	20.877322
620.461000	20.874275
620.656000	20.697752
620.852000	20.618521
621.047000	20.509044
621.242000	20.284546
621.437000	20.590124
621.632000	20.746526
621.827000	20.502106
622.022000	20.154788
622.217000	20.314344
622.412000	20.551902
622.607000	20.517911
622.802000	20.222725
622.997000	20.115263
623.192000	20.159964
623.387000	20.133297
623.583000	19.932766
623.778000	20.296303
623.973000	20.314884
624.168000	20.168052
624.363000	20.181106
624.558000	20.197382
624.753000	19.818854
624.948000	20.148718
625.143000	20.074407
625.338000	19.922230
625.533000	19.760672
625.728000	19.779392
625.923000	19.894508
626.119000	19.651247
626.314000	19.404198
626.509000	19.360811
626.704000	19.470193
626.899000	19.402167
627.094000	19.264572
627.289000	19.362045
627.484000	19.354299
627.679000	19.230153
627.874000	19.284386
628.069000	19.462441
628.264000	19.337869
628.459000	19.340382
628.654000	19.140630
628.850000	18.970805
629.045000	19.196765
629.240000	18.921858
629.435000	18.935664
629.630000	19.155464
629.825000	18.962736
630.020000	18.953246
630.215000	18.587150
630.410000	18.780743
630.605000	18.744264
630.800000	18.705939
630.995000	18.911965
631.190000	19.056722
631.385000	18.862587
631.581000	18.710778
631.776000	18.709004
631.971000	18.366954
632.166000	18.314875
632.361000	18.166383
632.556000	18.324531
632.751000	18.486456
632.946000	18.270413
633.141000	18.139475
633.336000	18.142806
633.531000	18.126021
633.726000	18.100888
633.921000	17.973576
634.117000	17.715828
634.312000	17.598756
634.507000	17.561524
634.702000	17.553535
634.897000	17.620892
635.092000	17.840003
635.287000	17.819369
635.482000	17.539149
635.677000	17.686994
635.872000	17.612147
636.067000	17.689866
636.262000	17.567098
636.457000	17.108265
636.652000	16.999662
636.848000	16.968198
637.043000	17.104604
637.238000	17.094656
637.433000	16.828031
637.628000	16.844669
637.823000	17.065711
638.018000	17.075455
638.213000	16.754192
638.408000	16.772668
638.603000	16.654398
638.798000	16.533116
638.993000	16.640676
639.188000	16.576437
639.383000	16.464988
639.579000	16.806268
639.774000	16.657312
639.969000	16.374707
640.164000	16.086745
640.359000	16.065956
640.554000	16.412896
640.749000	16.378559
640.944000	16.328480
641.139000	16.192043
641.334000	15.905241
641.529000	15.472494
641.724000	15.589267
641.919000	15.821002
642.115000	16.144643
642.310000	15.919582
642.505000	15.706079
642.700000	15.689905
642.895000	15.489984
643.090000	15.699908
643.285000	15.687043
643.480000	15.621117
643.675000	15.709299
643.870000	15.997470
644.065000	15.704104
644.260000	15.132240
644.455000	15.283877
644.650000	15.083428
644.846000	15.171277
645.041000	14.854239
645.236000	14.699925
645.431000	14.775538
645.626000	14.527618
645.821000	14.724598
646.016000	14.801018
646.211000	15.105475
646.406000	14.835574
646.601000	14.848355
646.796000	14.680950
646.991000	14.351727
647.186000	14.377401
647.381000	14.584944
647.577000	14.434042
647.772000	14.569203
647.967000	14.622180
648.162000	14.462403
648.357000	14.218221
648.552000	14.396453
648.747000	14.334295
648.942000	14.325052
649.137000	14.196419
649.332000	13.974628
649.527000	13.842433
649.722000	14.050176
649.917000	14.113057
650.113000	13.846168
650.308000	13.677370
650.503000	13.555804
650.698000	13.700243
650.893000	13.641812
651.088000	13.610454
651.283000	13.627723
651.478000	13.310861
651.673000	13.576802
651.868000	13.283593
652.063000	13.387915
652.258000	13.535398
652.453000	13.633240
652.648000	13.215876
652.844000	13.100751
653.039000	13.066659
653.234000	12.674095
653.429000	12.549650
653.624000	12.727960
653.819000	12.759039
654.014000	12.770947
654.209000	12.553099
654.404000	12.756673
654.599000	12.490180
654.794000	12.383819
654.989000	12.789142
655.184000	12.576987
655.380000	12.134964
655.575000	12.013384
655.770000	12.124909
655.965000	12.244802
656.160000	12.128013
656.355000	12.210884
656.550000	12.121592
656.745000	12.234467
656.940000	12.025474
657.135000	12.019364
657.330000	11.951240
657.525000	11.721503
657.720000	11.926632
657.915000	11.931503
658.111000	11.770637
658.306000	12.031490
658.501000	11.730500
658.696000	11.426020
658.891000	11.587649
659.086000	11.324614
659.281000	11.339923
659.476000	11.295225
659.671000	10.871897
659.866000	11.091106
660.061000	11.361191
660.256000	11.337560
660.451000	11.212933
660.646000	10.961180
660.842000	10.983480
661.037000	10.759289
661.232000	10.848788
661.427000	10.972100
661.622000	10.795655
661.817000	10.563906
662.012000	10.793972
662.207000	10.581515
662.402000	10.433097
662.597000	10.592716
662.792000	10.116294
662.987000	10.124191
663.182000	10.363006
663.378000	10.345332
663.573000	9.940988
663.768000	9.923618
663.963000	9.999517
664.158000	10.022882
664.353000	10.618553
664.548000	10.640929
664.743000	10.130520
664.938000	9.669123
665.133000	9.867401
665.328000	10.353618
665.523000	10.180319
665.718000	9.797538
665.913000	9.739947
666.109000	9.765027
666.304000	10.002234
666.499000	9.821504
666.694000	10.007849
666.889000	10.224531
667.084000	9.686090
667.279000	9.501619
667.474000	9.556625
667.669000	9.484788
667.864000	9.327004
668.059000	9.244976
668.254000	9.343110
668.449000	9.230580
668.644000	9.285636
668.840000	9.389883
669.035000	8.973641
669.230000	8.756853
669.425000	9.150666
669.620000	8.879152
669.815000	8.871030
670.010000	8.698547
670.205000	8.913823
670.400000	8.881201
670.595000	8.844382
670.790000	8.714974
670.985000	8.710632
671.180000	8.871987
671.376000	8.394014
671.571000	8.358500
671.766000	8.371085
671.961000	8.252189
672.156000	8.123255
672.351000	8.288157
672.546000	8.298810
672.741000	8.382559
672.936000	8.427541
673.131000	8.948189
673.326000	8.535477
673.521000	7.957713
673.716000	7.906208
673.911000	7.747482
674.107000	8.286953
674.302000	8.498681
674.497000	8.205932
674.692000	7.771519
674.887000	7.663423
675.082000	7.740679
675.277000	8.121899
675.472000	8.018181
675.667000	7.631288
675.862000	7.496260
676.057000	7.661139
676.252000	7.628585
676.447000	7.500652
676.643000	7.613116
676.838000	7.900141
677.033000	7.550820
677.228000	7.850400
677.423000	7.633987
677.618000	7.140708
677.813000	6.992287
678.008000	7.194772
678.203000	7.386120
678.398000	7.084540
678.593000	7.274617
678.788000	7.326638
678.983000	6.884834
679.178000	6.941533
679.374000	6.905417
679.569000	7.059247
679.764000	6.915811
679.959000	6.706741
680.154000	6.686605
680.349000	6.526434
680.544000	6.564361
680.739000	6.657624
680.934000	6.556467
681.129000	6.524340
681.324000	6.395205
681.519000	6.672500
681.714000	6.656731
681.909000	6.540085
682.105000	6.300872
682.300000	6.613102
682.495000	6.777166
682.690000	6.810836
682.885000	6.531446
683.080000	6.274919
683.275000	6.300051
683.470000	6.623180
683.665000	6.711272
683.860000	7.065335
684.055000	6.693525
684.250000	6.165238
684.445000	6.103876
684.641000	6.454673
684.836000	6.191613
685.031000	6.191695
685.226000	6.140577
685.421000	6.433790
685.616000	6.027341
685.811000	5.821288
686.006000	6.015106
686.201000	5.996925
686.396000	5.557848
686.591000	5.584063
686.786000	6.128285
686.981000	5.932800
687.176000	5.939667
687.372000	5.821484
687.567000	6.020956
687.762000	5.836340
687.957000	5.722255
688.152000	5.513822
688.347000	5.462793
688.542000	5.235686
688.737000	4.931704
688.932000	4.951558
689.127000	5.326175
689.322000	5.675554
689.517000	5.428553
689.712000	5.216511
689.908000	5.225649
690.103000	5.204863
690.298000	5.344911
690.493000	5.258119
690.688000	4.880394
690.883000	5.107481
691.078000	5.615631
691.273000	5.538335
691.468000	5.232912
691.663000	5.197959
691.858000	5.261569
692.053000	5.147695
692.248000	5.172570
692.443000	5.148813
692.639000	5.057307
692.834000	5.255084
693.029000	5.639450
693.224000	5.543429
693.419000	4.949907
693.614000	4.776556
693.809000	4.692603
694.004000	4.625785
694.199000	4.533004
694.394000	4.748140
694.589000	4.445224
694.784000	4.473760
694.979000	4.698104
695.174000	4.609662
695.370000	5.126766
695.565000	4.854075
695.760000	4.591416
695.955000	4.925372
696.150000	4.890588
696.345000	4.471888
696.540000	4.792310
696.740000	4.642915
696.940000	4.674862
697.140000	4.747922
697.340000	4.363728
697.539000	4.464206
697.739000	4.384153
697.939000	4.473175
698.139000	4.141733
698.339000	3.729410
698.539000	3.904079
698.739000	3.926938
698.939000	4.018632
699.138000	3.867668
699.338000	4.664634
699.538000	4.781998
699.738000	4.159320
699.938000	3.946246
700.138000	3.865318
700.338000	3.688199
700.538000	3.890312
700.737000	3.985475
700.937000	3.522155
701.137000	3.581998
701.337000	4.219291
701.537000	4.203253
701.737000	3.915723
701.937000	3.903478
702.137000	3.933234
702.337000	3.631073
702.536000	3.507100
702.736000	3.549511
702.936000	3.406016
703.136000	3.940322
703.336000	3.947953
703.536000	3.685443
703.736000	3.331252
703.936000	3.461174
704.135000	3.442347
704.335000	3.794827
704.535000	3.525868
704.735000	3.275683
704.935000	3.839634
705.135000	3.634031
705.335000	3.399494
705.535000	3.535981
705.735000	3.600315
705.934000	3.611457
706.134000	3.339935
706.334000	3.217676
706.534000	3.200574
706.734000	3.285750
706.934000	3.133356
707.134000	3.112421
707.334000	3.437268
707.533000	3.456719
707.733000	3.275285
707.933000	3.247982
708.133000	3.466571
708.333000	3.414427
708.533000	3.148318
708.733000	3.477335
708.933000	3.308922
709.132000	3.117095
709.332000	3.025275
709.532000	2.925806
709.732000	3.137948
709.932000	2.645196
710.132000	2.616993
710.332000	2.407945
710.532000	3.016589
710.732000	3.286734
710.931000	3.000449
711.131000	2.994342
711.331000	3.139449
711.531000	2.916798
711.731000	3.018252
711.931000	2.973882
712.131000	2.983766
712.331000	3.096843
712.530000	2.931819
712.730000	2.714975
712.930000	2.812840
713.130000	2.746103
713.330000	2.695367
713.530000	2.818478
713.730000	3.444874
713.930000	3.176609
714.129000	2.616892
714.329000	2.475534
714.529000	2.673177
714.729000	3.024018
714.929000	2.896882
715.129000	2.587619
715.329000	2.690248
715.529000	2.646376
715.729000	3.271501
715.928000	2.995919
716.128000	2.658839
716.328000	2.721853
716.528000	2.545598
716.728000	2.790022
716.928000	2.578666
717.128000	2.602872
717.328000	2.542514
717.527000	2.402510
717.727000	2.501880
717.927000	2.565548
718.127000	2.488172
718.327000	2.088462
718.527000	2.082772
718.727000	2.456550
718.927000	2.349244
719.127000	2.120251
719.326000	2.260652
719.526000	2.661319
719.726000	2.573417
719.926000	2.048123
720.126000	2.062534
720.326000	2.292144
720.526000	2.137699
720.726000	2.139449
720.925000	2.381037
721.125000	1.902904
721.325000	2.316130
721.525000	2.293342
721.725000	2.061632
721.925000	2.110165
722.125000	2.096094
722.325000	2.575330
722.524000	2.259367
722.724000	1.880776
722.924000	1.737644
723.124000	1.868678
723.324000	2.319735
723.524000	2.479657
723.724000	1.845268
723.924000	1.957571
724.124000	2.160077
724.323000	2.379409
724.523000	2.386949
724.723000	2.849783
724.923000	2.527730
725.123000	2.289174
725.323000	2.385085
725.523000	2.166900
725.723000	1.888909
725.922000	1.983048
726.122000	2.043455
726.322000	1.878827
726.522000	1.895264
726.722000	2.554081
726.922000	2.173495
727.122000	2.073833
727.322000	2.296084
727.521000	2.047334
727.721000	1.873974
727.921000	1.923058
728.121000	1.927475
728.321000	1.513904
728.521000	1.650616
728.721000	1.870265
728.921000	2.199680
729.121000	3.056994
729.320000	2.378649
729.520000	1.845287
729.720000	1.640487
729.920000	1.688077
730.120000	1.822662
730.320000	1.896733
730.520000	1.614004
730.720000	1.634057
730.919000	1.713569
731.119000	1.911616
731.319000	1.504258
731.519000	1.428975
731.719000	1.790705
731.919000	1.531057
732.119000	1.056700
732.319000	1.090231
732.519000	1.715575
732.718000	1.425214
732.918000	1.436539
733.118000	1.678033
733.318000	2.028063
733.518000	1.652535
733.718000	0.968497
733.918000	0.963975
734.118000	1.375538
734.317000	1.697706
734.517000	1.292548
734.717000	1.478093
734.917000	1.856285
735.117000	1.786300
735.317000	1.672784
735.517000	2.161730
735.717000	2.302500
735.916000	1.362065
736.116000	1.211107
736.316000	1.483601
736.516000	1.587035
736.716000	1.530667
736.916000	0.994164
737.116000	1.219258
737.316000	1.932142
737.516000	1.836148
737.715000	1.758461
737.915000	1.164951
738.115000	1.052576
738.315000	1.438793
738.515000	1.042593
738.715000	1.245184
738.915000	1.852999
739.115000	1.291523
739.314000	1.285037
739.514000	1.839691
739.714000	1.924639
739.914000	1.726231
740.114000	1.331394
740.314000	1.563866
740.514000	2.089251
740.714000	1.165828
740.913000	0.701600
741.113000	0.925174
741.313000	1.332145
741.513000	1.303244
741.713000	1.323114
741.913000	1.482862
742.113000	1.289030
742.313000	0.710343
742.513000	1.067881
742.712000	1.198027
742.912000	0.889804
743.112000	0.931510
743.312000	0.606349
743.512000	1.073912
743.712000	1.277796
743.912000	0.571615
744.112000	0.454794
744.311000	0.528764
744.511000	0.838023
744.711000	1.227856
744.911000	0.886335
745.111000	0.876166
745.311000	1.323836
745.511000	1.026046
745.711000	0.891210
745.911000	1.130332
746.110000	0.609367
746.310000	0.424798
746.510000	0.759571
746.710000	1.300337
746.910000	1.364424
747.110000	0.610252
747.310000	0.479297
747.510000	0.884459
747.709000	1.098541
747.909000	1.101358
748.109000	1.412530
748.309000	1.008520
748.509000	0.672431
748.709000	0.622332
748.909000	0.861649
749.109000	0.918215
749.308000	1.553444
749.508000	1.081677
749.708000	0.822586
749.908000	1.247425
750.108000	1.322119
750.308000	0.549095
750.508000	1.181342
750.708000	0.711424
750.908000	0.396753
751.107000	1.134081
751.307000	1.682670
751.507000	1.215573
751.707000	1.112111
751.907000	0.874446
752.107000	0.961829
752.307000	0.608082
752.507000	0.773467
752.706000	0.809315
752.906000	1.758761
753.106000	0.673634
753.306000	0.076437
753.506000	1.100624
753.706000	0.660465
753.906000	0.980097
754.106000	1.332115
754.305000	1.179819
754.505000	1.238503
754.705000	1.176949
754.905000	1.072952
755.105000	1.111918
755.305000	0.171543
755.505000	0.378481
755.705000	0.942686
755.905000	0.920391
756.104000	0.311254
756.304000	-0.154469
756.504000	-0.325369
756.704000	0.695398
756.904000	1.018702
757.104000	0.820783
757.304000	0.662964
757.504000	1.081911
757.703000	0.839202
757.903000	1.308215
758.103000	1.426281
758.303000	1.051023
758.503000	0.686418
758.703000	0.526513
758.903000	0.442727
759.103000	0.742080
759.303000	0.804251
759.502000	0.669603
759.702000	1.035039
759.902000	0.567748
760.102000	0.509894
760.302000	0.557821
760.502000	1.030041
760.702000	1.011747
760.902000	0.531715
761.101000	0.261654
761.301000	0.023225
761.501000	0.394955
761.701000	0.156304
761.901000	0.377752
762.101000	0.747070
762.301000	0.613074
762.501000	0.311818
762.700000	0.252625
762.900000	0.178585
763.100000	0.509379
763.300000	0.823078
763.500000	0.566214
763.703000	0.273713
763.905000	-0.030528
764.108000	0.629757
764.311000	0.289386
764.513000	0.364726
764.716000	0.612621
764.919000	0.586025
765.121000	0.113136
765.324000	0.051580
765.527000	0.169394
765.729000	0.238527
765.932000	1.076861
766.135000	1.000389
766.337000	0.474477
766.540000	0.232806
766.743000	0.605594
766.945000	0.066379
767.148000	-0.283623
767.351000	0.003501
767.553000	0.980443
767.756000	0.418627
767.958000	-0.073868
768.161000	0.249960
768.364000	-0.053003
768.566000	-0.166439
768.769000	0.387286
768.972000	0.571966
769.174000	0.345651
769.377000	-0.160812
769.580000	-0.211292
769.782000	0.475889
769.985000	-0.003590
770.188000	-1.047039
770.390000	-0.336276
770.593000	1.361485
770.796000	1.008320
770.998000	0.459253
771.201000	0.170139
771.404000	0.554637
771.606000	0.098266
771.809000	0.170999
772.012000	0.251525
772.214000	-0.674910
772.417000	-0.660388
772.620000	0.469208
772.822000	0.150284
773.025000	-0.128314
773.228000	-0.121208
773.430000	-0.106694
773.633000	0.239595
773.836000	0.431859
774.038000	0.559463
774.241000	0.322253
774.444000	0.196918
774.646000	0.968946
774.849000	0.576726
775.052000	0.368298
775.254000	0.585228
775.457000	0.055863
775.659000	0.115726
775.862000	0.063478
776.065000	0.130905
776.267000	0.745563
776.470000	1.125225
776.673000	0.365292
776.875000	0.849811
777.078000	0.727793
777.281000	-0.200619
777.483000	0.550611
777.686000	0.658166
777.889000	0.331341
778.091000	0.668786
778.294000	-0.446495
778.497000	-0.324793
778.699000	-0.164439
778.902000	0.065233
779.105000	0.441310
779.307000	1.010698
779.510000	-0.157913
779.713000	0.359587
779.915000	0.174568
780.118000	1.114450
780.321000	1.294660
780.523000	0.315649
780.726000	-0.120854
780.929000	-0.066251
781.131000	-0.199061
781.334000	-0.826623
781.537000	-0.656077
781.739000	0.263457
781.942000	-0.287282
782.145000	-0.810924
782.347000	-0.716438
782.550000	-0.194077
782.753000	-0.298034
782.955000	-0.354628
783.158000	-0.051769
783.361000	0.059881
783.563000	-0.155716
783.766000	-0.068052
783.968000	1.856268
784.171000	1.735901
784.374000	0.237651
784.576000	0.076509
784.779000	0.550801
784.982000	0.925987
785.184000	0.004066
785.387000	0.517112
785.590000	1.404003
785.792000	1.017167
785.995000	0.805978
786.198000	0.569612
786.400000	0.094650
786.603000	0.218660
786.806000	-0.028791
787.008000	-0.020563
787.211000	0.136203
787.414000	-0.393441
787.616000	-0.062357
787.819000	-0.087506
788.022000	-0.680127
788.224000	-0.121305
788.427000	-0.807765
788.630000	-0.147000
788.832000	0.163622
789.035000	-0.490085
789.238000	-1.115032
789.440000	-0.579813
789.643000	0.536377
789.846000	-0.275306
790.048000	0.326922
790.251000	0.437416
790.454000	0.063574
790.656000	0.616815
790.859000	-0.115121
791.062000	-0.465567
791.264000	0.354222
791.467000	-0.527152
791.669000	-1.085889
791.872000	-0.107837
792.075000	-0.469628
792.277000	-0.211151
792.480000	-0.038994
792.683000	-0.479609
792.885000	-0.635772
793.088000	-0.429743
793.291000	-0.752844
793.493000	-0.797812
793.696000	0.135201
793.899000	0.371736
794.101000	-0.249860
794.304000	-0.364653
794.507000	0.013200
794.709000	0.083831
794.912000	-0.332242
795.115000	-0.696831
795.317000	-0.386036
795.520000	0.004457
795.723000	-0.111864
795.925000	-0.739382
796.128000	-1.006954
796.331000	-0.363695
796.533000	-0.751625
796.736000	-0.167364
796.939000	-0.058944
797.141000	-0.140931
797.344000	0.541508
797.547000	0.651001
797.749000	0.442223
797.952000	-0.252018
798.155000	-0.662959
798.357000	-0.924533
798.560000	-0.624460
798.763000	0.143247
798.965000	-0.013849
799.168000	0.041670
799.371000	0.152967
799.573000	-0.395320
799.776000	-1.029372
799.978000	-0.948815
800.181000	-0.248194
800.384000	1.411737
800.586000	0.691073
800.789000	-0.822351
800.992000	-0.849970
801.194000	-0.823609
801.397000	-0.825738
801.600000	-0.875909
801.802000	0.744448
802.005000	0.480437
802.208000	-1.273695
802.410000	-0.147755
802.613000	0.167557
802.816000	-0.110237
803.018000	-0.840995
803.221000	-0.717384
803.424000	0.815369
803.626000	0.352748
803.829000	-0.421738
804.032000	0.626988
804.234000	1.520828
804.437000	-0.043918
804.640000	-0.248662
804.842000	-0.190588
805.045000	-0.653188
805.248000	-0.506799
805.450000	-0.407993
805.653000	-0.499621
805.856000	-0.676964
806.058000	0.401477
806.261000	-0.700516
806.464000	-0.571915
806.666000	0.084678
806.869000	-0.265687
807.072000	-1.719263
807.274000	-1.961147
807.477000	-0.689030
807.679000	-0.397654
807.882000	-1.014079
808.085000	-0.868540
808.287000	-0.177947
808.490000	-0.922007
808.693000	-0.790121
808.895000	-0.280680
809.098000	-0.280816
809.301000	-0.210036
809.503000	-0.519650
809.706000	0.181059
809.909000	0.543089
810.111000	0.429901
810.314000	0.150549
810.517000	-0.325992
810.719000	-0.494345
810.922000	-0.485988
811.125000	0.568374
811.327000	0.634554
811.530000	-0.142156
811.735000	-0.436339
811.940000	-0.774522
812.146000	-0.492066
812.351000	0.058206
812.556000	-0.196412
812.761000	-0.814767
812.967000	0.272761
813.172000	0.176307
813.377000	-0.155416
813.582000	0.618920
813.788000	0.243858
813.993000	-0.956769
814.198000	-0.027054
814.403000	-0.794941
814.609000	-0.146928
814.814000	-0.169456
815.019000	0.812994
815.224000	0.692598
815.429000	-0.455650
815.635000	-0.181731
815.840000	-0.226032
816.045000	-0.182757
816.250000	0.471498
816.456000	-0.761243
816.661000	-1.691348
816.866000	-1.236335
817.071000	-1.291464
817.277000	-2.042531
817.482000	-1.065304
817.687000	-0.242217
817.892000	-0.254918
818.097000	0.414815
818.303000	0.687561
818.508000	0.958440
818.713000	2.350284
818.918000	1.053546
819.124000	0.896390
819.329000	-0.556172
819.534000	-0.684348
819.739000	-0.661399
819.945000	-0.641406
820.150000	-0.063924
820.355000	-0.145564
820.560000	0.075490
820.766000	0.029109
820.971000	-0.029277
821.176000	-1.414567
821.381000	-2.147919
821.586000	-1.254085
821.792000	0.360407
821.997000	-0.017741
822.202000	-0.112473
822.407000	-0.991578
822.613000	-1.529166
822.818000	-0.674113
823.023000	-0.232942
823.228000	-0.655248
823.434000	0.150167
823.639000	0.824681
823.844000	-0.488870
824.049000	0.308034
824.255000	0.405982
824.460000	-0.420053
824.665000	-0.737639
824.870000	0.226323
825.075000	-0.079620
825.281000	0.030715
825.486000	1.291509
825.691000	-0.810734
825.896000	-2.362552
826.102000	-0.428130
826.307000	-0.192816
826.512000	-0.668017
826.717000	-0.582403
826.923000	-0.759915
827.128000	-0.295820
827.333000	-1.209934
827.538000	-0.426017
827.744000	0.261330
827.949000	-0.617097
828.154000	-0.517396
828.359000	0.121304
828.564000	-0.186077
828.770000	-0.264162
828.975000	0.574725
829.180000	0.253122
829.385000	-1.381910
829.591000	-1.114087
829.796000	-0.739888
830.001000	-0.623218
830.206000	-1.033201
830.412000	-0.913812
830.617000	-1.087361
830.822000	0.086098
831.027000	-0.773159
831.232000	-1.043781
831.438000	-0.877077
831.643000	-0.475322
831.848000	-0.570442
832.053000	-0.599567
832.259000	-0.681250
832.464000	-2.428270
832.669000	-1.758203
832.874000	-1.443585
833.080000	-1.381894
833.285000	0.511381
833.490000	0.402572
833.695000	-1.146987
833.901000	-1.248991
834.106000	-1.485871
834.311000	-0.896209
834.516000	-0.494019
834.721000	-1.154548
834.927000	0.245916
835.132000	-0.049280
835.337000	1.374836
835.542000	0.035462
835.748000	-1.762574
835.953000	0.134959
836.158000	0.149531
836.363000	-0.393200
836.569000	-0.353021
836.774000	-0.916581
836.979000	-1.380156
837.184000	-1.832603
837.390000	-1.458598
837.595000	-0.851309
837.800000	-0.721993
838.005000	-0.506289
838.210000	-0.682686
838.416000	-0.994835
838.621000	-0.613285
838.826000	-0.745830
839.031000	-0.883262
839.237000	-1.368445
839.442000	-2.224470
839.647000	-2.385678
839.852000	-1.554749
840.058000	-1.319151
840.263000	-1.522581
840.468000	-2.176222
840.673000	-1.220930
840.878000	-0.918459
841.084000	-1.733329
841.289000	-0.727227
841.494000	1.981056
841.699000	1.662788
841.905000	0.860721
842.110000	1.286363
842.315000	-0.882839
842.520000	-0.507318
842.726000	-0.758884
842.931000	-1.414914
843.136000	-0.511793
843.341000	-2.070374
843.547000	-1.385340
843.752000	-0.911409
843.957000	-1.765833
844.162000	-1.292527
844.367000	-0.506874
844.573000	-0.121204
844.778000	-0.265944
844.983000	-0.218124
845.188000	0.040601
845.394000	-1.581337
845.599000	-1.381295
845.804000	-0.762714
846.009000	-0.123869
846.215000	-1.285908
846.420000	-0.590618
846.625000	0.258715
846.830000	0.756724
847.036000	-0.894086
847.241000	-1.401360
847.446000	0.646058
847.651000	-0.429709
847.856000	-1.997967
848.062000	-2.089166
848.267000	0.110886
848.472000	-0.967202
848.677000	-2.446217
848.883000	-0.779430
849.088000	0.994969
849.293000	-0.755683
849.498000	-1.188467
849.704000	-0.060895
849.909000	-1.072781
850.114000	-1.805468
850.319000	-0.480787
850.524000	-0.413114
850.730000	-0.238667
850.935000	-0.825377
851.140000	-0.115679
851.345000	0.062280
851.551000	0.080315
851.756000	0.116635
851.961000	-1.304393
852.166000	-1.395075
852.372000	-0.965549
852.577000	-0.990784
852.782000	-1.199789
852.987000	0.593621
853.193000	-0.009166
853.398000	-0.357563
853.603000	-1.497769
853.808000	-2.086944
854.013000	-0.934459
854.219000	0.120495
854.424000	1.851663
854.629000	1.874401
854.834000	-0.140814
855.040000	-0.179508
855.245000	0.028249
855.450000	-2.205996
855.655000	-3.310639
855.861000	-3.084878
856.066000	-2.344409
856.271000	-2.290677
856.476000	-0.067322
856.682000	-0.917173
856.887000	-3.694401
857.092000	-2.058891
857.297000	0.514368
857.502000	-0.048621
857.708000	-0.945081
857.913000	0.126880
858.118000	-0.265949
858.323000	-0.444552
858.529000	-0.621410
858.734000	-1.394558
858.939000	-0.962205
859.144000	-1.701999
859.350000	-2.817155
859.555000	-2.526392
859.760000	-0.130522
859.965000	0.652423
860.171000	-1.522181
860.376000	-0.253069
860.581000	-2.222815
860.786000	-4.556034
860.991000	-3.572684
861.197000	-2.342824
861.402000	-0.954181
861.607000	-1.344920
861.812000	-2.608618
862.018000	-2.970535
862.223000	-1.586578
862.428000	-0.803181
862.633000	0.365248
862.839000	-0.493551
863.044000	-1.429499
863.249000	-2.038110
863.454000	-0.623668
863.659000	-1.558601
863.865000	-2.184365
864.070000	-1.955061
864.275000	-2.193759
864.480000	-1.666285
864.686000	-3.528312
864.891000	-3.228881
865.096000	-0.857032
865.301000	-0.358670
865.507000	-0.142126
865.712000	0.032796
865.917000	-1.353281
866.122000	-0.209612
866.328000	-2.917921
866.533000	-3.315017
866.738000	-0.144315
866.943000	0.122370
867.148000	0.883780
867.354000	-1.792708
867.559000	-3.349613
867.764000	-1.643325
867.969000	-0.034172
868.175000	-1.373630
868.380000	-2.494876
868.585000	-3.228171
868.790000	-0.835583
868.996000	-1.048501
869.201000	-2.229570
869.406000	-3.376183
869.611000	-2.962698
869.817000	-2.100597
870.022000	2.691023
870.227000	0.058390
870.432000	-1.983307
870.637000	-0.270226
870.843000	-1.217175
871.048000	-1.525159
871.253000	0.224766
871.458000	-0.820398
871.664000	-2.787941
871.869000	-2.948846
872.074000	-2.233387
872.279000	-0.977390
872.485000	-1.493750
872.690000	-1.988105
872.895000	-1.824859
873.100000	-2.415585
873.306000	-3.115438
873.511000	-1.872367
873.716000	0.260966
873.921000	-1.499737
874.126000	-2.892521
874.332000	-2.018388
874.537000	-0.718119
874.742000	-0.841381
874.947000	-0.794505
875.153000	0.547368
875.358000	-0.880395
875.563000	-1.338489
875.768000	-3.673890
875.974000	-4.280253
876.179000	-0.682570
876.384000	-0.168236
876.589000	-1.997954
876.794000	-1.555733
877.000000	-2.629918
877.205000	-3.776533
877.410000	-0.590937
877.615000	-2.635054
877.821000	-4.615870
878.026000	-2.686196
878.231000	-3.664570
878.436000	-3.803239
878.642000	-2.868813
878.847000	-1.323929
879.052000	-0.333849
879.257000	-2.653600
879.463000	-3.439606
879.668000	-2.388216
879.873000	-0.121918
880.078000	-2.729506
880.283000	-4.376035
880.489000	-4.621320
880.694000	-3.956828
880.899000	-1.696751
881.104000	-0.373970
881.310000	0.844874
881.515000	-0.511876
881.720000	1.151024
881.925000	3.026273
882.131000	4.672189
882.336000	1.531901
882.541000	-2.818767
882.746000	-2.832671
882.952000	-3.739329
883.157000	-3.434975
883.362000	-3.040555
883.567000	-3.770016
883.772000	-4.036503
883.978000	-2.737399
884.183000	-0.740342
884.388000	-0.999298
884.593000	-3.491709
884.799000	0.422044
885.004000	0.428005
885.209000	-1.491278
885.414000	-1.015302
885.620000	-3.453284
885.825000	-0.283622
886.030000	-1.087574
886.235000	-2.743130
886.440000	-1.526575
886.646000	-4.291643
886.851000	-3.916960
887.056000	1.024424
887.261000	0.443763
887.467000	-3.549187
887.672000	-1.222062
887.877000	-1.663640
888.082000	-3.733720
888.288000	-4.622881
888.493000	-7.337701
888.698000	-4.832707
888.903000	-0.583939
889.109000	-3.165641
889.314000	-0.267893
889.519000	-1.177387
889.724000	1.776481
889.929000	0.110176
890.135000	-1.404578
890.340000	-1.415060
890.545000	-3.099000
890.750000	-4.889711
890.956000	-3.627555
891.161000	-0.335104
891.366000	-2.160329
891.571000	-1.876680
891.777000	-1.717881
891.982000	0.371068
892.187000	-0.145823
892.392000	-0.242460
892.598000	-0.016256
892.803000	-0.180400
893.008000	-2.605012
893.213000	-2.794216
893.418000	-2.912644
893.624000	-3.390327
893.829000	-5.741232
894.034000	-2.205221
894.239000	-0.916419
894.445000	-3.773553
894.650000	-3.391596
894.855000	-4.098411
895.060000	-4.458977
895.266000	-3.546277
895.471000	-4.691920
895.676000	-1.063165
895.881000	-0.187230
896.087000	-2.230168
896.292000	-3.923899
896.497000	0.705982
896.702000	-1.320554
896.907000	-3.418127
897.113000	0.672359
897.318000	1.154494
897.523000	0.777450
897.728000	-1.821034
897.934000	-2.575806
898.139000	-2.236210
898.344000	0.752407
898.549000	-1.179034
898.755000	-3.083926
898.960000	-3.847683
899.165000	-5.445942
899.370000	-0.944150
899.575000	2.696801
899.781000	-2.023866
899.986000	-3.600161
900.191000	-1.604284
900.396000	-1.822705
900.602000	-1.107450
900.807000	-1.956306
901.012000	-1.674610
901.217000	-0.018448
901.423000	-2.739328
901.628000	-4.519344
901.833000	0.315149
902.038000	-0.130776
902.244000	-3.782092
902.449000	-3.129698
902.654000	-2.897549
902.859000	-0.472347
903.064000	1.575710
903.270000	0.362002
903.475000	-4.023208
903.680000	-5.771509
903.885000	-5.356722
904.091000	-4.650943
904.296000	-5.173187
904.501000	-3.870971
904.706000	-3.454103
904.912000	0.374782
905.117000	-1.485603
905.322000	-4.492988
905.527000	-4.511905
905.733000	-4.156862
905.938000	-3.022078
906.143000	-3.787547
906.348000	-5.574392
906.553000	-0.428734
906.759000	0.714110
906.964000	-0.799673
907.169000	-1.917654
907.374000	-5.452074
907.580000	-4.901973
907.785000	-3.513656
907.990000	26.640510
908.195000	17.966926
908.401000	-0.148866
908.606000	-6.992389
908.811000	-8.822589
909.016000	-2.069390
909.221000	-1.819125
909.427000	-3.379161
909.632000	-5.449786
909.837000	-5.006766
910.042000	-5.810639
910.248000	-7.161636
910.453000	-3.122009
910.658000	-3.859751
910.863000	-4.880950
911.069000	-5.525059
911.274000	-1.059047
911.479000	0.793506
911.684000	-6.591591
911.890000	-4.038397
912.095000	-2.809803
912.300000	-5.498633
912.506000	-5.915868
912.711000	-5.476860
912.917000	-1.842801
913.123000	-2.171311
913.328000	-2.419644
913.534000	-1.872867
913.740000	6.899434
913.946000	3.287028
914.151000	-4.159141
914.357000	-5.584463
914.563000	-1.656966
914.768000	-5.300362
914.974000	-7.459907
915.180000	-6.396425
915.385000	-5.430231
915.591000	-8.330244
915.797000	-2.886234
916.002000	0.884232
916.208000	-2.489860
916.414000	-4.449604
916.620000	-5.325464
916.825000	-2.326006
917.031000	-3.299817
917.237000	-9.013938
917.442000	-4.802237
917.648000	-5.886396
917.854000	-7.032867
918.059000	-0.236919
918.265000	0.078874
918.471000	-3.091661
918.676000	-7.290929
918.882000	-8.091770
919.088000	-6.436789
919.294000	-11.588653
919.499000	-7.296397
919.705000	-1.676043
919.911000	-3.379415
920.116000	-1.248747
920.322000	-6.939096
920.528000	-5.855544
920.733000	-8.834902
920.939000	-9.498891
921.145000	-6.574399
921.350000	-4.410309
921.556000	-2.702825
921.762000	-3.159874
921.968000	-4.796946
922.173000	-6.350982
922.379000	-9.479416
922.585000	-5.382680
922.790000	-6.107210
922.996000	-6.214823
923.202000	-7.991558
923.407000	-7.980429
923.613000	-4.745708
923.819000	-2.612760
924.024000	-2.963220
924.230000	-0.522604
924.436000	-3.310139
924.642000	6.044888
924.847000	1.107597
925.053000	-5.658643
925.259000	-9.908198
925.464000	-4.556295
925.670000	-4.488932
925.876000	-7.050858
926.081000	-7.736031
926.287000	-2.108482
926.493000	-0.429135
926.698000	-4.596093
926.904000	-3.056226
927.110000	-3.801867
927.316000	-3.286718
927.521000	3.789741
927.727000	-2.893555
927.933000	-5.983160
928.138000	-4.704457
928.344000	-11.011857
928.550000	-5.879353
928.755000	-0.105566
928.961000	-5.021984
929.167000	-5.617924
929.372000	1.383449
929.578000	-0.178998
929.784000	-5.805933
929.990000	-9.672773
930.195000	-6.792492
930.401000	-3.549602
930.607000	-3.411430
930.812000	-2.926205
931.018000	-5.690708
931.224000	-11.571582
931.429000	-7.458875
931.635000	-10.314050
931.841000	-11.712060
932.046000	-7.615152
932.252000	-1.731414
932.458000	5.784720
932.664000	-0.824473
932.869000	-7.428018
933.075000	-8.903100
933.281000	-8.227161
933.486000	-2.155090
933.692000	-4.860599
933.898000	-9.610112
934.103000	-1.359328
934.309000	-5.845949
934.515000	-2.864156
934.720000	-1.158178
934.926000	1.081381
935.132000	1.255412
935.338000	-2.844341
935.543000	-10.342141
935.749000	-11.424816
935.955000	-12.557608
936.160000	-9.242753
936.366000	-1.787147
936.572000	-4.345642
936.777000	-2.717973
936.983000	1.577258
937.189000	-2.264013
937.394000	-9.129625
937.600000	-0.539530
937.806000	5.780436
938.012000	-3.161691
938.217000	5.308733
938.423000	1.069320
938.629000	-7.588180
938.834000	-13.387231
939.040000	-12.733756
939.246000	-4.442553
939.451000	-9.473435
939.657000	-7.642987
939.863000	-10.894832
940.068000	-4.651966
940.274000	-8.761413
940.480000	-0.279181
940.686000	3.354517
940.891000	-4.566620
941.097000	20.577085
941.303000	7.535929
941.508000	-8.042915
941.714000	-4.130596
941.920000	-15.972686
942.125000	-6.457105
942.331000	-2.916250
942.537000	4.460271
942.742000	2.583203
942.948000	-12.076717
943.154000	-13.622251
943.360000	-22.348165
943.565000	-7.414970
943.771000	3.031323
943.977000	6.574189
944.182000	-13.432536
944.388000	-14.846090
944.594000	-1.560645
944.799000	7.504030
945.005000	0.682036
945.211000	6.405282
945.416000	3.599359
945.622000	-11.078713
945.828000	-10.302386
946.034000	1.105615
946.239000	0.719392
946.445000	-5.859506
946.651000	-18.905844
946.856000	-15.870023
947.062000	-0.967192
947.268000	2.142742
947.473000	-14.147398
947.679000	-18.562629
947.885000	-2.829226
948.090000	2.449403
948.296000	15.146965
948.502000	1.791462
948.708000	-9.704814
948.913000	-13.612668
949.119000	-2.098696
949.325000	-7.112998
949.530000	-21.488551
949.736000	-25.062473
949.942000	-15.274678
950.147000	-12.268011
950.353000	-8.400456
950.559000	-10.019860
950.764000	10.384862
950.970000	7.585485
951.176000	-10.023949
951.382000	-14.021125
951.587000	-1.918960
951.793000	4.077918
951.999000	2.891536
952.204000	-11.038282
952.410000	-24.773628
952.616000	-11.975245
952.821000	-5.427358
953.027000	-14.898219
953.233000	-17.609789
953.438000	-16.433559
953.644000	2.243285
953.850000	-1.520660
954.056000	-10.318178
954.261000	-10.824101
954.467000	3.321264
954.673000	7.144192
954.878000	-6.429695
955.084000	-5.697681
955.290000	-22.362554
955.495000	-23.918144
955.701000	-16.868931
955.907000	3.859358
956.112000	4.465204
956.318000	12.226377
956.524000	10.091052
956.730000	-6.704740
956.935000	-8.425603
957.141000	-12.514147
957.347000	-0.233713
957.552000	-5.681068
957.758000	-24.063779
957.964000	-29.972314
958.169000	6.244859
958.375000	1.506580
958.581000	-16.493973
958.786000	-29.653748
958.992000	-32.277156
959.198000	-8.227459
959.404000	-0.892879
959.609000	-10.686470
959.815000	-16.633236
960.021000	1.901095
960.226000	-5.920553
960.432000	-32.882380
960.638000	-22.628632
960.843000	-10.227492
961.049000	-11.130372
961.255000	-3.506191
961.460000	-19.035294
961.666000	-36.895718
961.872000	-20.792779
962.078000	-16.404763
962.283000	-29.513968
962.489000	-29.331450
962.695000	-17.579262
962.900000	-16.201437
963.106000	-13.692023
963.312000	-15.682993
963.517000	-18.347241
963.723000	-23.367491
963.929000	1.195018
964.134000	8.899222
964.340000	-16.234891
964.546000	-20.619837
964.752000	-24.934854
964.957000	-29.515403
965.163000	-2.200166
965.369000	-4.942666
965.574000	-0.293749
965.780000	-0.685986
966.000000	-14.809755
966.220000	-12.727723
966.440000	-13.390191
966.661000	-0.898078
966.881000	-19.918537
967.101000	-38.598629
967.321000	-40.605904
967.541000	-12.878955
967.761000	-18.362370
967.981000	-13.224161
968.202000	-10.807955
968.422000	3.055236
968.642000	0.945260
968.862000	-2.680599
969.082000	-10.477067
969.302000	-2.788188
969.522000	-8.659792
969.743000	2.455110
969.963000	-17.128319
970.183000	-27.931615
970.403000	-27.672036
970.623000	-23.338011
970.843000	0.788957
971.063000	-0.114448
971.284000	-18.077439
971.504000	-30.822041
971.724000	-15.088579
971.944000	-27.298062
972.164000	-38.587437
972.384000	-25.542228
972.604000	-40.234575
972.825000	-49.700335
973.045000	-34.653575
973.265000	22.471010
973.485000	15.216763
973.705000	-4.354250
973.925000	-11.492314
974.145000	-50.615442
974.365000	-18.754918
974.586000	-16.262785
974.806000	-31.389867
975.026000	2.743068
975.246000	-12.099171
975.466000	-27.069685
975.686000	-14.170576
975.906000	-25.636403
976.127000	-44.989973
976.347000	-34.053541
976.567000	-3.123666
976.787000	-14.304227
977.007000	-23.191533
977.227000	-24.063651
977.447000	-24.990619
977.668000	-39.663192
977.888000	-28.019530
978.108000	-33.885206
978.328000	-21.561899
978.548000	6.212299
978.768000	8.682739
978.988000	1.076198
979.209000	-12.702691
979.429000	-22.319146
979.649000	-10.081752
979.869000	-31.734299
980.089000	-48.517069
980.309000	-48.593413
980.529000	-54.808727
980.750000	-30.060683
980.970000	-39.945013
981.190000	-29.597394
981.410000	-25.590964
981.630000	-30.114685
981.850000	-25.243438
982.070000	-18.877777
982.291000	-43.618176
982.511000	-41.069922
982.731000	-8.983228
982.951000	-27.091349
983.171000	-21.612356
983.391000	-7.936310
983.611000	11.973381
983.832000	-25.380523
984.052000	-51.645261
984.272000	-23.118174
984.492000	-19.832754
984.712000	-34.479375
984.932000	-54.789932
985.152000	-52.049879
985.373000	-38.697241
985.593000	-15.637185
985.813000	-29.836795
986.033000	-34.812382
986.253000	6.310760
986.473000	2.516505
986.693000	-31.691537
986.914000	-37.340974
987.134000	0.625788
987.354000	-26.526719
987.574000	203.725000
987.794000	122.161687
988.014000	-50.232580
988.234000	-36.366185
988.455000	-8.337635
988.675000	-7.473497
988.895000	-18.046416
989.115000	-38.672307
989.335000	-17.302926
989.555000	-3.914939
989.775000	-46.688645
989.995000	-35.916922
990.216000	-26.196521
990.436000	-26.655014
990.656000	13.222544
990.876000	-19.243993
991.096000	-10.207878
991.316000	20.965671
991.536000	-10.121860
991.757000	-22.753620
991.977000	-71.286698
992.197000	-6.061331
992.417000	-33.336471
992.637000	-77.179608
992.857000	-78.677421
993.077000	-71.021390
993.298000	-51.893082
993.518000	-53.098162
993.738000	-87.973778
993.958000	-46.223809
994.178000	-60.531244
994.398000	-42.389779
994.618000	-74.041095
994.839000	-127.053872
995.059000	-35.497407
995.279000	35.991058
995.499000	-11.659998
995.719000	0.303626
995.939000	-15.517983
996.159000	-38.669078
996.380000	-19.840948
996.600000	-59.653810
996.820000	-21.814071
997.040000	27.488297
997.260000	-44.133402
997.480000	-25.166737
997.700000	-83.544630
997.921000	-59.983808
998.141000	29.075721
998.361000	-2.362633
998.581000	-59.949463
998.801000	-78.586378
999.021000	-49.833827
999.241000	-34.606486
999.462000	-50.385316
999.682000	-95.115584
999.902000	-71.445086
1000.122000	-80.878239
1000.342000	-131.540545
1000.562000	-55.403819
1000.782000	-65.082117
1001.003000	-1071.026070
