Wavelength	Irradiance
(nm)	(mW/cm2/nm)

294.396000	0.000000
294.577000	0.000000
294.757000	0.000000
294.938000	0.000000
295.118000	0.000000
295.299000	0.000000
295.479000	0.000000
295.660000	-0.000000
295.840000	-0.000000
296.021000	0.000000
296.202000	0.000000
296.382000	-0.000000
296.563000	-0.000000
296.743000	-0.000000
296.924000	0.000000
297.104000	0.000000
297.285000	-0.000000
297.465000	-0.000000
297.646000	-0.000000
297.826000	0.000000
298.007000	0.000000
298.187000	0.000000
298.368000	-0.000000
298.548000	0.000000
298.729000	0.000000
298.909000	0.000000
299.090000	-0.000000
299.270000	-0.000000
299.451000	-0.000000
299.631000	-0.000000
299.812000	0.000000
299.992000	0.000000
300.173000	0.000000
300.353000	-0.000000
300.534000	0.000000
300.714000	0.000000
300.895000	0.000000
301.075000	0.000000
301.256000	0.000000
301.436000	0.000000
301.617000	0.000000
301.797000	-0.000000
301.978000	0.000000
302.159000	0.000000
302.339000	0.000000
302.520000	0.000000
302.700000	-0.000000
302.881000	0.000000
303.061000	0.000000
303.242000	0.000000
303.422000	0.000000
303.603000	0.000000
303.783000	-0.000000
303.964000	0.000000
304.144000	0.000000
304.325000	0.000000
304.505000	0.000000
304.686000	0.000000
304.866000	0.000000
305.047000	-0.000000
305.227000	-0.000000
305.408000	-0.000000
305.588000	-0.000000
305.769000	-0.000000
305.949000	0.000000
306.130000	-0.000000
306.310000	-0.000000
306.491000	0.000000
306.671000	0.000000
306.852000	0.000000
307.032000	0.000000
307.213000	0.000000
307.393000	-0.000000
307.574000	0.000000
307.755000	0.000000
307.935000	0.000000
308.116000	0.000000
308.296000	-0.000000
308.477000	0.000000
308.657000	0.000000
308.838000	0.000000
309.018000	0.000000
309.199000	-0.000000
309.379000	0.000000
309.560000	0.000000
309.740000	0.000000
309.921000	0.000000
310.101000	0.000000
310.282000	-0.000000
310.462000	-0.000000
310.643000	-0.000000
310.823000	-0.000000
311.004000	0.000000
311.184000	-0.000000
311.365000	0.000000
311.545000	0.000000
311.726000	0.000000
311.906000	0.000000
312.087000	0.000000
312.267000	-0.000000
312.448000	-0.000000
312.628000	-0.000000
312.809000	0.000000
312.989000	-0.000000
313.170000	-0.000000
313.344000	0.000000
313.518000	-0.000000
313.691000	-0.000000
313.865000	-0.000000
314.039000	-0.000000
314.213000	-0.000000
314.387000	-0.000000
314.560000	-0.000000
314.734000	-0.000000
314.908000	0.000000
315.082000	-0.000000
315.255000	0.000000
315.429000	0.000000
315.603000	0.000000
315.777000	-0.000000
315.951000	0.000000
316.124000	-0.000000
316.298000	-0.000000
316.472000	-0.000000
316.646000	-0.000000
316.820000	-0.000000
316.993000	0.000000
317.167000	-0.000000
317.341000	-0.000000
317.515000	-0.000000
317.688000	0.000000
317.862000	-0.000000
318.036000	-0.000000
318.210000	-0.000000
318.384000	-0.000000
318.557000	-0.000000
318.731000	-0.000000
318.905000	0.000000
319.079000	0.000000
319.253000	0.000000
319.426000	0.000000
319.600000	0.000000
319.774000	-0.000000
319.948000	0.000000
320.122000	0.000000
320.295000	0.000000
320.469000	-0.000000
320.643000	-0.000000
320.817000	-0.000000
320.990000	-0.000000
321.164000	-0.000000
321.338000	-0.000000
321.512000	-0.000000
321.686000	-0.000000
321.859000	0.000000
322.033000	0.000000
322.207000	0.000000
322.381000	0.000000
322.555000	0.000000
322.728000	0.000000
322.902000	-0.000000
323.076000	-0.000000
323.250000	-0.000000
323.423000	-0.000000
323.597000	-0.000000
323.771000	-0.000000
323.945000	-0.000000
324.119000	-0.000000
324.292000	0.000000
324.466000	0.000000
324.640000	0.000000
324.814000	0.000000
324.988000	-0.000000
325.161000	-0.000000
325.335000	-0.000000
325.509000	-0.000000
325.683000	0.000000
325.856000	-0.000000
326.030000	-0.000000
326.204000	-0.000000
326.378000	0.000000
326.552000	-0.000000
326.725000	-0.000000
326.899000	-0.000000
327.073000	-0.000000
327.247000	0.000000
327.421000	0.000000
327.594000	0.000000
327.768000	-0.000000
327.942000	0.000000
328.116000	0.000000
328.289000	0.000000
328.463000	0.000000
328.637000	0.000000
328.811000	0.000000
328.985000	0.000000
329.158000	0.000000
329.332000	-0.000000
329.506000	0.000000
329.680000	0.000000
329.854000	0.000000
330.027000	0.000000
330.201000	0.000000
330.375000	0.000000
330.549000	0.000000
330.723000	0.000000
330.896000	0.000000
331.070000	-0.000000
331.244000	0.000000
331.418000	0.000000
331.591000	0.000000
331.765000	0.000000
331.939000	-0.000000
332.113000	0.000000
332.287000	0.000000
332.460000	0.000000
332.634000	0.000000
332.808000	-0.000000
332.982000	-0.000000
333.156000	0.000000
333.329000	0.000000
333.503000	0.000000
333.677000	-0.000000
333.851000	-0.000000
334.024000	0.000000
334.198000	0.000000
334.372000	-0.000000
334.546000	-0.000000
334.720000	0.000000
334.893000	-0.000000
335.067000	0.000000
335.241000	0.000000
335.415000	0.000000
335.589000	-0.000000
335.762000	-0.000000
335.936000	-0.000000
336.110000	-0.000000
336.284000	-0.000000
336.458000	0.000000
336.631000	0.000000
336.805000	-0.000000
336.979000	-0.000000
337.153000	-0.000000
337.326000	-0.000000
337.500000	0.000000
337.674000	0.000000
337.848000	0.000000
338.022000	0.000000
338.195000	0.000000
338.369000	-0.000000
338.543000	-0.000000
338.717000	0.000000
338.891000	0.000000
339.064000	0.000000
339.238000	0.000000
339.412000	0.000000
339.586000	0.000000
339.759000	-0.000000
339.933000	-0.000000
340.107000	0.000000
340.281000	0.000000
340.455000	-0.000000
340.628000	-0.000000
340.802000	0.000000
340.976000	0.000000
341.150000	0.000000
341.324000	-0.000000
341.497000	-0.000000
341.671000	-0.000000
341.845000	-0.000000
342.019000	-0.000000
342.192000	0.000000
342.366000	0.000000
342.540000	0.000000
342.714000	-0.000000
342.888000	-0.000000
343.061000	0.000000
343.235000	0.000000
343.409000	-0.000000
343.583000	-0.000000
343.757000	0.000000
343.930000	-0.000000
344.104000	-0.000000
344.278000	0.000000
344.452000	0.000000
344.626000	-0.000000
344.799000	-0.000000
344.973000	-0.000000
345.147000	-0.000000
345.321000	-0.000000
345.494000	0.000000
345.668000	0.000000
345.842000	0.000000
346.016000	-0.000000
346.190000	0.000000
346.363000	0.000000
346.537000	0.000000
346.711000	0.000000
346.885000	-0.000000
347.059000	-0.000000
347.232000	0.000000
347.406000	0.000000
347.580000	-0.000000
347.754000	0.000000
347.927000	0.000000
348.101000	0.000000
348.275000	-0.000000
348.449000	-0.000000
348.623000	-0.000000
348.796000	0.000000
348.970000	0.000000
349.144000	0.000000
349.318000	0.000000
349.492000	0.000000
349.665000	0.000000
349.839000	-0.000000
350.013000	-0.000000
350.187000	-0.000000
350.361000	-0.000000
350.534000	0.000000
350.708000	0.000000
350.882000	0.000000
351.056000	0.000000
351.229000	0.000000
351.403000	0.000000
351.577000	-0.000000
351.751000	-0.000000
351.925000	-0.000000
352.098000	-0.000000
352.272000	0.000000
352.446000	-0.000000
352.620000	-0.000000
352.794000	0.000000
352.967000	0.000000
353.141000	0.000000
353.315000	0.000000
353.489000	-0.000000
353.662000	-0.000000
353.836000	0.000000
354.010000	0.000000
354.184000	0.000000
354.358000	-0.000000
354.531000	-0.000000
354.705000	-0.000000
354.879000	0.000000
355.053000	0.000000
355.227000	0.000000
355.400000	-0.000000
355.574000	0.000000
355.748000	0.000000
355.922000	0.000000
356.095000	-0.000000
356.269000	0.000000
356.443000	-0.000000
356.617000	-0.000000
356.791000	-0.000000
356.964000	-0.000000
357.138000	0.000000
357.312000	0.000000
357.486000	0.000000
357.660000	0.000000
357.833000	0.000000
358.007000	-0.000000
358.181000	-0.000000
358.355000	-0.000000
358.529000	-0.000000
358.702000	-0.000000
358.876000	-0.000000
359.050000	-0.000000
359.224000	-0.000000
359.397000	0.000000
359.571000	0.000000
359.745000	0.000000
359.919000	0.000000
360.093000	0.108261
360.266000	0.192216
360.440000	0.256005
360.614000	0.331197
360.788000	0.138802
360.962000	-0.039706
361.135000	0.132756
361.309000	0.037554
361.483000	-0.125680
361.657000	-0.088494
361.830000	-0.052650
362.004000	0.137960
362.178000	-0.145061
362.352000	-0.028971
362.526000	0.127580
362.699000	-0.004397
362.873000	-0.316719
363.047000	-0.221123
363.221000	-0.101009
363.395000	0.020962
363.568000	-0.004470
363.742000	0.008346
363.916000	0.074242
364.090000	-0.110610
364.263000	-0.102160
364.437000	-0.151083
364.611000	0.095451
364.785000	0.124190
364.959000	-0.057677
365.132000	-0.096629
365.306000	-0.058663
365.480000	0.055487
365.656000	-0.124789
365.831000	-0.087973
366.007000	0.002113
366.183000	0.008992
366.358000	-0.138395
366.534000	-0.108339
366.710000	-0.279784
366.886000	-0.172074
367.061000	0.161544
367.237000	0.236084
367.413000	0.064114
367.588000	-0.195149
367.764000	-0.039830
367.940000	-0.116064
368.115000	-0.137584
368.291000	-0.165764
368.467000	-0.108687
368.643000	0.211658
368.818000	0.009178
368.994000	0.002155
369.170000	-0.012105
369.345000	-0.053791
369.521000	-0.019533
369.697000	0.111098
369.872000	-0.026528
370.048000	-0.192300
370.224000	-0.126626
370.399000	-0.296467
370.575000	-0.173539
370.751000	-0.289191
370.927000	-0.220078
371.102000	-0.326647
371.278000	-0.230492
371.454000	0.059376
371.629000	0.319962
371.805000	0.233064
371.981000	0.403760
372.156000	0.509686
372.332000	0.257615
372.508000	0.262123
372.683000	0.246209
372.859000	0.074461
373.035000	0.082567
373.211000	0.559416
373.386000	0.353290
373.562000	-0.041539
373.738000	-0.291860
373.913000	-0.498100
374.089000	-0.201382
374.265000	0.264981
374.440000	0.090583
374.616000	0.222661
374.792000	0.123678
374.968000	0.367275
375.143000	0.254407
375.319000	-0.085446
375.495000	-0.249975
375.670000	-0.076841
375.846000	0.161512
376.022000	-0.012441
376.197000	0.060243
376.373000	-0.204844
376.549000	-0.111673
376.724000	-0.277704
376.900000	-0.296059
377.076000	0.101868
377.252000	0.323326
377.427000	0.479972
377.603000	0.137297
377.779000	0.002135
377.954000	-0.180112
378.130000	-0.039852
378.306000	0.030356
378.481000	-0.011952
378.657000	-0.011891
378.833000	0.009078
379.009000	0.193314
379.184000	0.227684
379.360000	0.148830
379.536000	0.192335
379.711000	0.059447
379.887000	-0.061396
380.063000	-0.130566
380.238000	-0.096328
380.414000	0.162895
380.590000	-0.167297
380.765000	-0.166780
380.941000	0.127341
381.117000	0.161100
381.293000	0.112437
381.468000	-0.052523
381.644000	0.085152
381.820000	0.251521
381.995000	0.170023
382.171000	0.430932
382.347000	0.360197
382.522000	-0.074707
382.698000	0.293851
382.874000	0.251792
383.050000	-0.130572
383.225000	0.169400
383.401000	0.295850
383.577000	0.093682
383.752000	-0.004836
383.928000	-0.011717
384.104000	0.214072
384.279000	0.171819
384.455000	0.132610
384.631000	0.029588
384.806000	-0.080155
384.982000	0.139848
385.158000	0.002085
385.334000	0.097845
385.509000	-0.004810
385.685000	-0.360812
385.861000	0.043972
386.036000	-0.004818
386.212000	-0.223508
386.388000	-0.052556
386.563000	-0.059269
386.739000	-0.232009
386.915000	-0.446000
387.090000	0.009007
387.266000	0.250638
387.442000	0.257301
387.618000	0.268954
387.793000	-0.004832
387.969000	-0.218695
388.145000	-0.156156
388.320000	-0.058891
388.496000	0.002035
388.672000	-0.345285
388.847000	0.111014
389.023000	0.152856
389.199000	-0.239093
389.375000	0.002038
389.550000	0.015503
389.726000	0.157453
389.902000	-0.051728
390.077000	0.122273
390.253000	0.015633
390.429000	-0.025297
390.604000	0.029195
390.780000	0.170923
390.956000	0.109269
391.131000	0.008698
391.307000	0.370263
391.483000	0.149253
391.659000	-0.038275
391.834000	0.115669
392.010000	0.015357
392.186000	-0.051467
392.361000	0.008708
392.537000	-0.097520
392.713000	0.298314
392.888000	0.582346
393.064000	0.293209
393.240000	-0.044233
393.416000	-0.162067
393.591000	-0.235934
393.767000	-0.296351
393.943000	-0.168247
394.118000	0.301423
394.294000	0.502907
394.470000	0.365340
394.645000	0.422398
394.821000	0.567982
394.997000	0.105388
395.172000	0.066244
395.348000	0.040598
395.524000	-0.356735
395.700000	-0.186195
395.875000	0.078526
396.051000	-0.023591
396.227000	-0.004496
396.402000	0.034225
396.578000	0.124312
396.754000	-0.074951
396.929000	-0.029974
397.105000	0.307572
397.281000	0.256547
397.457000	0.109810
397.632000	0.240544
397.808000	0.033499
397.984000	-0.150233
398.159000	-0.137797
398.335000	0.058925
398.511000	0.539469
398.686000	0.330418
398.862000	0.039533
399.038000	-0.085747
399.213000	0.145146
399.389000	-0.148716
399.565000	0.189597
399.741000	0.445649
399.916000	0.260632
400.092000	0.403796
400.268000	0.170030
400.443000	0.071218
400.619000	0.404491
400.795000	0.273389
400.970000	0.120244
401.146000	0.151988
401.322000	0.430080
401.497000	0.725502
401.673000	0.305484
401.849000	0.020802
402.025000	0.309461
402.200000	0.333658
402.376000	0.114508
402.552000	0.529668
402.727000	0.352085
402.903000	-0.066774
403.079000	0.014363
403.254000	0.358133
403.430000	0.337117
403.606000	0.275487
403.782000	0.374516
403.957000	0.170039
404.133000	-0.048084
404.309000	0.045572
404.484000	0.244463
404.660000	0.282572
404.841000	0.245295
405.023000	0.442594
405.204000	0.362967
405.385000	0.033148
405.566000	0.014320
405.748000	0.152875
405.929000	0.412863
406.110000	0.520584
406.292000	0.385456
406.473000	0.305778
406.654000	0.033134
406.835000	0.188778
407.017000	0.262547
407.198000	0.419194
407.379000	0.405797
407.560000	0.370228
407.742000	0.286477
407.923000	0.325397
408.104000	0.249545
408.286000	0.292298
408.467000	0.328560
408.648000	0.199724
408.829000	0.186698
409.011000	0.365842
409.192000	0.181466
409.373000	0.403884
409.555000	0.552421
409.736000	0.487271
409.917000	0.445910
410.098000	0.369438
410.280000	0.476246
410.461000	0.548257
410.642000	0.677008
410.823000	0.901738
411.005000	0.799387
411.186000	0.641522
411.367000	0.422562
411.549000	0.446630
411.730000	0.708437
411.911000	0.804541
412.092000	0.735448
412.274000	0.657698
412.455000	0.779657
412.636000	0.792439
412.818000	0.620972
412.999000	0.658567
413.180000	0.710598
413.361000	0.719274
413.543000	0.721428
413.724000	0.611913
413.905000	0.635859
414.087000	0.649177
414.268000	0.707276
414.449000	0.857089
414.630000	0.866384
414.812000	0.632552
414.993000	1.004691
415.174000	1.247165
415.355000	1.165785
415.537000	0.935951
415.718000	1.244680
415.899000	1.199664
416.081000	1.065444
416.262000	1.420995
416.443000	1.277035
416.624000	1.244900
416.806000	1.264838
416.987000	1.400165
417.168000	1.426822
417.350000	1.397294
417.531000	1.354070
417.712000	1.423604
417.893000	1.753756
418.075000	1.845445
418.256000	1.537789
418.437000	1.683656
418.618000	1.921141
418.800000	2.097606
418.981000	1.856752
419.162000	1.861971
419.344000	2.047031
419.525000	2.046508
419.706000	2.089368
419.887000	2.270372
420.069000	2.476109
420.250000	2.348298
420.431000	2.348360
420.613000	2.400036
420.794000	2.334932
420.975000	2.632459
421.156000	2.510928
421.338000	2.543387
421.519000	2.554367
421.700000	2.585007
421.882000	2.642200
422.063000	2.831258
422.244000	3.240378
422.425000	3.109153
422.607000	2.857294
422.788000	2.913369
422.969000	2.876009
423.150000	2.913807
423.332000	3.008497
423.513000	3.161729
423.694000	3.288075
423.876000	3.381753
424.057000	3.485942
424.238000	3.776504
424.419000	3.897644
424.601000	3.781232
424.782000	3.899021
424.963000	4.015976
425.145000	4.038465
425.326000	4.175940
425.507000	4.381626
425.688000	4.369372
425.870000	4.259681
426.051000	4.184637
426.232000	4.333464
426.413000	4.503232
426.595000	4.537064
426.776000	4.563665
426.957000	4.715902
427.139000	4.896812
427.320000	4.947282
427.501000	5.145948
427.682000	5.172623
427.864000	5.250267
428.045000	5.721553
428.226000	5.811535
428.408000	5.597673
428.589000	5.752512
428.770000	6.003923
428.951000	6.085570
429.133000	6.015924
429.314000	6.258911
429.495000	6.295085
429.677000	6.328813
429.858000	6.530202
430.039000	6.847211
430.220000	7.043211
430.402000	7.186817
430.583000	7.123485
430.764000	7.277589
430.945000	7.588854
431.127000	7.835334
431.308000	7.754215
431.489000	8.069695
431.671000	8.365004
431.852000	8.377013
432.033000	8.508194
432.214000	8.751528
432.396000	8.931375
432.577000	8.917182
432.758000	8.935175
432.940000	9.191599
433.121000	9.441888
433.302000	9.714863
433.483000	9.920531
433.665000	10.269055
433.846000	10.373880
434.027000	10.543685
434.208000	10.663845
434.390000	10.804036
434.571000	11.391556
434.752000	12.014103
434.934000	11.881922
435.115000	12.011457
435.296000	12.462323
435.477000	12.337284
435.659000	12.393500
435.840000	12.947246
436.026000	13.084017
436.211000	13.064206
436.397000	13.101842
436.582000	13.614256
436.768000	14.087259
436.953000	14.356107
437.139000	14.633861
437.325000	15.276664
437.510000	15.555114
437.696000	15.858374
437.881000	16.236391
438.067000	16.276979
438.252000	16.652764
438.438000	17.036405
438.624000	17.368493
438.809000	17.712716
438.995000	18.159811
439.180000	18.628415
439.366000	19.143670
439.551000	19.313696
439.737000	19.628047
439.923000	20.403856
440.108000	20.878223
440.294000	21.256169
440.479000	21.993149
440.665000	22.428263
440.850000	22.510845
441.036000	22.847627
441.222000	23.429049
441.407000	24.164576
441.593000	24.970751
441.778000	25.496253
441.964000	26.195893
442.149000	26.359445
442.335000	26.853568
442.521000	27.788471
442.706000	28.401434
442.892000	28.895963
443.077000	29.652692
443.263000	30.120406
443.448000	30.598506
443.634000	31.498157
443.820000	32.381880
444.005000	33.000856
444.191000	33.614890
444.376000	34.180566
444.562000	34.665810
444.747000	35.580013
444.933000	36.149396
445.119000	36.622225
445.304000	36.987941
445.490000	37.955451
445.675000	38.755475
445.861000	39.383577
446.046000	39.960988
446.232000	40.618276
446.418000	41.279633
446.603000	41.707889
446.789000	42.323866
446.974000	43.119648
447.160000	43.257580
447.345000	43.499976
447.531000	43.871653
447.717000	44.870281
447.902000	45.621046
448.088000	46.028097
448.273000	46.279856
448.459000	46.228371
448.644000	46.538697
448.830000	46.969489
449.016000	46.984654
449.201000	47.337106
449.387000	47.734963
449.572000	47.715169
449.758000	47.664304
449.943000	47.761975
450.129000	47.723728
450.315000	47.727085
450.500000	47.479231
450.686000	47.757934
450.871000	47.793948
451.057000	47.383190
451.243000	47.107827
451.428000	47.333275
451.614000	47.182011
451.799000	46.576175
451.985000	46.452989
452.170000	45.993172
452.356000	45.388579
452.542000	45.188565
452.727000	44.919649
452.913000	44.578614
453.098000	44.237156
453.284000	43.883439
453.469000	43.348837
453.655000	43.127362
453.841000	42.260690
454.026000	41.513113
454.212000	41.089493
454.397000	40.670319
454.583000	40.174881
454.768000	39.421526
454.954000	38.802504
455.140000	38.394324
455.325000	37.604399
455.511000	37.081394
455.696000	36.654718
455.882000	36.046941
456.067000	35.962855
456.253000	35.405484
456.439000	34.937058
456.624000	34.471070
456.810000	33.829560
456.995000	33.539088
457.181000	33.086560
457.366000	32.603705
457.552000	31.976361
457.738000	31.774775
457.923000	31.726246
458.109000	31.703479
458.294000	31.053127
458.480000	30.729360
458.665000	30.238984
458.851000	29.891744
459.037000	29.367920
459.222000	29.002656
459.408000	28.871473
459.593000	28.614920
459.779000	28.485922
459.964000	28.405013
460.150000	28.305346
460.336000	27.934598
460.521000	27.504216
460.707000	27.198903
460.892000	26.821850
461.078000	26.847503
461.263000	26.884562
461.449000	26.604806
461.635000	26.390930
461.820000	26.370491
462.006000	26.221353
462.191000	25.973591
462.377000	25.645617
462.562000	25.915656
462.748000	25.836166
462.934000	25.156392
463.119000	25.003893
463.305000	25.160753
463.490000	24.835359
463.676000	24.649332
463.861000	24.484049
464.047000	24.456511
464.233000	24.097496
464.418000	24.062420
464.604000	23.695255
464.789000	23.685715
464.975000	23.628408
465.160000	23.313539
465.346000	23.017676
465.532000	22.763628
465.717000	22.861281
465.903000	22.757651
466.088000	22.434306
466.274000	21.972854
466.459000	21.806694
466.645000	22.086730
466.831000	21.757474
467.016000	21.544732
467.202000	21.396788
467.387000	21.079358
467.573000	20.592493
467.758000	20.633077
467.944000	20.346775
468.130000	20.173540
468.315000	20.294936
468.501000	20.218218
468.686000	19.720897
468.872000	19.569396
469.057000	19.392812
469.243000	19.098785
469.429000	19.005407
469.614000	18.622129
469.800000	18.223505
469.985000	18.236738
470.171000	17.911602
470.356000	17.650158
470.542000	17.638839
470.728000	17.503673
470.913000	17.220689
471.099000	17.326406
471.284000	17.059831
471.470000	16.825779
471.655000	16.709867
471.841000	16.674387
472.027000	16.245896
472.212000	16.442598
472.398000	16.448530
472.583000	16.155599
472.769000	16.019282
472.954000	15.771248
473.140000	15.533893
473.326000	15.388122
473.511000	15.565823
473.697000	15.501342
473.882000	15.320208
474.068000	15.090749
474.253000	14.960587
474.439000	14.958133
474.625000	14.852239
474.810000	14.758029
474.996000	14.430464
475.181000	14.220506
475.367000	14.457321
475.552000	14.771866
475.738000	14.457885
475.924000	14.429275
476.109000	14.349285
476.295000	14.086216
476.480000	14.087612
476.666000	14.175322
476.851000	14.106723
477.037000	14.127912
477.223000	13.980691
477.408000	13.949599
477.594000	13.779328
477.779000	13.956275
477.965000	13.904294
478.151000	13.800831
478.336000	13.966782
478.522000	13.819888
478.707000	13.827194
478.893000	14.017705
479.078000	13.846187
479.264000	13.893624
479.450000	13.921150
479.635000	14.033791
479.821000	14.062808
480.006000	14.025802
480.192000	13.951140
480.377000	14.073764
480.563000	14.174087
480.749000	13.853873
480.934000	13.852209
481.120000	14.002496
481.305000	14.275638
481.491000	14.338157
481.676000	14.225488
481.862000	14.262746
482.048000	14.093809
482.233000	14.217078
482.419000	14.249229
482.604000	14.110234
482.790000	14.255376
482.975000	14.483813
483.161000	14.598145
483.347000	14.513529
483.532000	14.424598
483.718000	14.384515
483.903000	14.417916
484.089000	14.492719
484.274000	14.338593
484.460000	14.415615
484.646000	14.609781
484.831000	14.651031
485.017000	14.723207
485.202000	14.765122
485.388000	14.864468
485.573000	14.800347
485.759000	14.689359
485.945000	14.950070
486.130000	14.956195
486.316000	14.988161
486.501000	14.878853
486.687000	14.775261
486.872000	14.871332
487.058000	15.146864
487.244000	15.252103
487.429000	15.099240
487.615000	15.258437
487.800000	15.520924
487.986000	15.267082
488.171000	15.341441
488.357000	15.414949
488.543000	15.513894
488.728000	15.773181
488.914000	15.658372
489.099000	15.476556
489.285000	15.495649
489.470000	15.736143
489.656000	15.906940
489.842000	16.072874
490.027000	16.173626
490.213000	16.003901
490.398000	15.743630
490.584000	16.107413
490.769000	16.355156
490.955000	16.446369
491.141000	16.576036
491.326000	16.717347
491.512000	16.824029
491.697000	16.603502
491.883000	16.622974
492.068000	16.650415
492.254000	16.819995
492.440000	16.983713
492.625000	17.013499
492.811000	17.017047
492.996000	17.065257
493.182000	17.145174
493.367000	17.156127
493.553000	17.236632
493.739000	17.349461
493.924000	17.407187
494.110000	17.503094
494.295000	17.525184
494.481000	17.777090
494.666000	17.890273
494.852000	18.125265
495.038000	17.975348
495.223000	17.964576
495.409000	18.089258
495.594000	18.098302
495.780000	18.351267
495.965000	18.465754
496.151000	18.693515
496.337000	18.526211
496.522000	18.359128
496.708000	18.675504
496.893000	18.882529
497.079000	18.710344
497.264000	18.774047
497.450000	18.901530
497.636000	19.184224
497.821000	19.117788
498.007000	19.482476
498.192000	19.484312
498.378000	19.176493
498.563000	19.435621
498.749000	19.542633
498.935000	19.662348
499.120000	19.928899
499.306000	19.729665
499.491000	19.622631
499.677000	19.769355
499.862000	20.018391
500.048000	20.232111
500.234000	20.160293
500.419000	20.246851
500.605000	20.563836
500.790000	20.379259
500.976000	20.362172
501.161000	20.477144
501.347000	20.708882
501.533000	20.709670
501.718000	20.676692
501.904000	20.849771
502.089000	20.976756
502.275000	21.022059
502.460000	21.076232
502.646000	21.112984
502.832000	21.248922
503.017000	21.425006
503.203000	21.238331
503.388000	21.368692
503.574000	21.416893
503.759000	21.436118
503.945000	21.614551
504.131000	21.585254
504.316000	21.517909
504.502000	21.530265
504.687000	21.449726
504.873000	21.491016
505.058000	21.664068
505.244000	21.612821
505.430000	21.712234
505.615000	21.999972
505.801000	22.153253
505.986000	22.000360
506.172000	22.072334
506.358000	22.147819
506.543000	22.261634
506.729000	22.375715
506.914000	22.307143
507.100000	22.564858
507.285000	22.514140
507.471000	22.527065
507.657000	22.769218
507.842000	22.417447
508.028000	22.284914
508.213000	22.585861
508.399000	22.823379
508.584000	22.905433
508.770000	22.814214
508.956000	22.882982
509.141000	22.845681
509.327000	23.092233
509.512000	23.186827
509.698000	23.065415
509.883000	23.104279
510.069000	23.132512
510.255000	23.338648
510.440000	23.235317
510.626000	23.257379
510.811000	23.214075
510.997000	23.227581
511.182000	23.685887
511.368000	23.630562
511.554000	23.328457
511.739000	23.449904
511.925000	23.682407
512.110000	23.617468
512.296000	23.800606
512.481000	24.015133
512.667000	24.100967
512.853000	23.690257
513.038000	23.667829
513.224000	23.712149
513.409000	23.705414
513.595000	24.112554
513.780000	24.104590
513.966000	24.076364
514.152000	23.968118
514.337000	23.678196
514.523000	23.954284
514.708000	24.167309
514.894000	24.294138
515.079000	24.105139
515.265000	24.166533
515.451000	24.391390
515.636000	24.236084
515.822000	24.292098
516.007000	24.222828
516.193000	24.645695
516.378000	24.872907
516.564000	24.690650
516.750000	24.703498
516.935000	24.784794
517.121000	24.560809
517.306000	24.733817
517.492000	24.999413
517.677000	24.725781
517.863000	24.575395
518.049000	24.699297
518.234000	24.611854
518.420000	24.793263
518.605000	25.245579
518.791000	25.168426
518.976000	24.905230
519.162000	24.842309
519.348000	25.063286
519.533000	25.177702
519.719000	25.405871
519.904000	25.352562
520.090000	25.137432
520.275000	25.158551
520.461000	25.191115
520.647000	25.233875
520.832000	25.150593
521.018000	25.227886
521.203000	25.166859
521.389000	24.976471
521.574000	25.079634
521.760000	25.242176
521.946000	25.318874
522.131000	25.449015
522.317000	25.513521
522.502000	25.377261
522.688000	25.691120
522.873000	25.715424
523.059000	25.460776
523.245000	25.320165
523.430000	25.417293
523.616000	25.483798
523.801000	25.474164
523.987000	25.580715
524.172000	25.612729
524.358000	25.814880
524.544000	25.664191
524.729000	25.600431
524.915000	25.774531
525.100000	25.695021
525.286000	25.819865
525.471000	25.844874
525.657000	25.858477
525.843000	25.775414
526.028000	26.003212
526.214000	26.058938
526.399000	25.823403
526.585000	25.784840
526.770000	25.908776
526.956000	25.951549
527.142000	25.867880
527.327000	26.218461
527.513000	26.189324
527.698000	26.130542
527.884000	26.212449
528.069000	26.120012
528.255000	26.238226
528.441000	26.322638
528.626000	26.421214
528.812000	26.537395
528.997000	26.204667
529.183000	26.042464
529.368000	26.346241
529.554000	26.353399
529.740000	26.409732
529.925000	26.433338
530.111000	26.381753
530.296000	26.470213
530.482000	26.611885
530.667000	26.392659
530.853000	26.477099
531.039000	26.253855
531.224000	26.367561
531.410000	26.796934
531.595000	26.589318
531.781000	26.447396
531.967000	26.466657
532.152000	26.691963
532.338000	26.721999
532.523000	26.574087
532.709000	26.556386
532.894000	26.743012
533.080000	26.879013
533.266000	26.609783
533.451000	26.535345
533.637000	26.344247
533.822000	26.826675
534.008000	26.694784
534.193000	26.557164
534.379000	26.875809
534.565000	26.984201
534.750000	26.782606
534.936000	27.081361
535.121000	26.843006
535.307000	26.783333
535.492000	26.947311
535.678000	26.821500
535.864000	26.866249
536.049000	27.271877
536.235000	27.051264
536.420000	26.878526
536.606000	26.717600
536.791000	26.706644
536.977000	26.943423
537.163000	27.188579
537.348000	27.150850
537.534000	27.414039
537.719000	27.131016
537.905000	27.027029
538.090000	27.539549
538.276000	27.647055
538.462000	27.395864
538.647000	27.179882
538.833000	27.297279
539.018000	27.466858
539.204000	27.265538
539.389000	27.219889
539.575000	27.596840
539.761000	27.463626
539.946000	27.096747
540.132000	27.561252
540.317000	27.430936
540.503000	27.452342
540.688000	27.663155
540.874000	27.660410
541.060000	27.852310
541.245000	27.791914
541.431000	27.442497
541.616000	27.545129
541.802000	27.722734
541.987000	27.790950
542.173000	27.764204
542.359000	27.780313
542.544000	27.833999
542.730000	27.505815
542.915000	27.795064
543.101000	27.805631
543.286000	27.813182
543.472000	27.902492
543.658000	27.872094
543.843000	27.974589
544.029000	28.205844
544.214000	28.038170
544.400000	27.513970
544.585000	27.875622
544.771000	28.149350
544.957000	28.318721
545.142000	28.307741
545.328000	28.244599
545.513000	28.417900
545.699000	28.350128
545.884000	28.167408
546.070000	28.318912
546.261000	28.393145
546.451000	28.289340
546.642000	28.151842
546.833000	28.124549
547.023000	28.112328
547.214000	28.179189
547.405000	28.179846
547.595000	28.614904
547.786000	28.636824
547.977000	28.266321
548.167000	28.242863
548.358000	28.444631
548.549000	28.781515
548.740000	28.602849
548.930000	28.416267
549.121000	28.426260
549.312000	28.451053
549.502000	28.291339
549.693000	28.370609
549.884000	28.583466
550.074000	28.955464
550.265000	28.697901
550.456000	28.852475
550.646000	28.805478
550.837000	28.839781
551.028000	28.531711
551.218000	28.639815
551.409000	28.655008
551.600000	28.771136
551.790000	29.031922
551.981000	28.877090
552.172000	28.826400
552.362000	29.207253
552.553000	29.584222
552.744000	29.064542
552.934000	28.805441
553.125000	28.695920
553.316000	28.751320
553.506000	29.325789
553.697000	29.073603
553.888000	29.109607
554.079000	29.070210
554.269000	28.843995
554.460000	28.704477
554.651000	28.727781
554.841000	28.741242
555.032000	29.180147
555.223000	29.340306
555.413000	29.454174
555.604000	29.302993
555.795000	29.008695
555.985000	29.440276
556.176000	29.531435
556.367000	29.197830
556.557000	29.389882
556.748000	29.611643
556.939000	29.471266
557.129000	29.294951
557.320000	29.521554
557.511000	29.479083
557.701000	29.721944
557.892000	30.062380
558.083000	29.852954
558.273000	29.965841
558.464000	29.683553
558.655000	29.594909
558.845000	29.589634
559.036000	29.875008
559.227000	30.079657
559.418000	30.002535
559.608000	30.110510
559.799000	29.928128
559.990000	29.675068
560.180000	29.695099
560.371000	29.633482
560.562000	29.745078
560.752000	30.029723
560.943000	29.742009
561.134000	29.530626
561.324000	29.864124
561.515000	30.370828
561.706000	30.373516
561.896000	30.182729
562.087000	30.067717
562.278000	30.205520
562.468000	30.154472
562.659000	30.389268
562.850000	30.912812
563.040000	30.875464
563.231000	30.457457
563.422000	30.624270
563.612000	30.633179
563.803000	30.608451
563.994000	30.362842
564.185000	30.244166
564.375000	30.643188
564.566000	30.735449
564.757000	30.820980
564.947000	30.642361
565.138000	30.760031
565.329000	30.869997
565.519000	30.847892
565.710000	30.940443
565.901000	31.164695
566.091000	31.399696
566.282000	31.229507
566.473000	31.169527
566.663000	31.230947
566.854000	30.942988
567.045000	31.123293
567.235000	31.487357
567.426000	31.530341
567.617000	31.290003
567.807000	31.388026
567.998000	31.510973
568.189000	31.364674
568.379000	31.363255
568.570000	31.289590
568.761000	31.199738
568.951000	31.341498
569.142000	31.467421
569.333000	31.670457
569.524000	31.396734
569.714000	31.250752
569.905000	31.459168
570.096000	31.965121
570.286000	31.850855
570.477000	31.882924
570.668000	31.829360
570.858000	31.987657
571.049000	31.869445
571.240000	31.979968
571.430000	32.309765
571.621000	32.165737
571.812000	32.122458
572.002000	32.261571
572.193000	32.361145
572.384000	32.458443
572.574000	32.238594
572.765000	32.448790
572.956000	32.492876
573.146000	32.722724
573.337000	32.575999
573.528000	32.548375
573.718000	32.666203
573.909000	32.683376
574.100000	32.560898
574.290000	32.267279
574.481000	32.407423
574.672000	32.697367
574.863000	32.944558
575.053000	32.653721
575.244000	32.769994
575.435000	32.886446
575.625000	32.826348
575.816000	32.898873
576.007000	33.108547
576.197000	33.330732
576.388000	33.229315
576.579000	33.466833
576.769000	33.495571
576.960000	33.019360
577.155000	32.849482
577.350000	33.274905
577.545000	33.605206
577.740000	33.287651
577.935000	33.458587
578.130000	33.590525
578.326000	33.515938
578.521000	33.516959
578.716000	33.694568
578.911000	33.618768
579.106000	33.690636
579.301000	33.856727
579.496000	33.701001
579.691000	33.448139
579.886000	33.758932
580.081000	33.930265
580.276000	33.961145
580.471000	34.053071
580.666000	33.928950
580.861000	33.922368
581.057000	33.922734
581.252000	34.017464
581.447000	33.860119
581.642000	34.052519
581.837000	34.104141
582.032000	34.120483
582.227000	34.453469
582.422000	34.678530
582.617000	34.483870
582.812000	34.240963
583.007000	34.222388
583.202000	34.541441
583.397000	34.965256
583.592000	34.914504
583.788000	34.571621
583.983000	34.759576
584.178000	35.040440
584.373000	34.793853
584.568000	34.846356
584.763000	34.770442
584.958000	34.626900
585.153000	34.890698
585.348000	34.913438
585.543000	34.954470
585.738000	34.954238
585.933000	34.764449
586.128000	35.201598
586.324000	35.393218
586.519000	35.137111
586.714000	35.075904
586.909000	35.363997
587.104000	35.508168
587.299000	35.264764
587.494000	35.431886
587.689000	35.533162
587.884000	35.682339
588.079000	35.537205
588.274000	35.491747
588.469000	35.288956
588.664000	35.673101
588.859000	35.851430
589.055000	35.681080
589.250000	35.894083
589.445000	35.486948
589.640000	35.611018
589.835000	36.148029
590.030000	36.371268
590.225000	36.308853
590.420000	35.938629
590.615000	35.789684
590.810000	35.749703
591.005000	35.874630
591.200000	35.905502
591.395000	35.718303
591.591000	35.667538
591.786000	35.994883
591.981000	35.919540
592.176000	35.992729
592.371000	36.097791
592.566000	35.910919
592.761000	36.146760
592.956000	36.191820
593.151000	36.150923
593.346000	36.186440
593.541000	36.391048
593.736000	36.486872
593.931000	36.335461
594.126000	36.281231
594.322000	36.182569
594.517000	36.477670
594.712000	36.180227
594.907000	36.109744
595.102000	36.227802
595.297000	36.611301
595.492000	36.629500
595.687000	36.441276
595.882000	36.274256
596.077000	36.224440
596.272000	36.512102
596.467000	36.644165
596.662000	36.483072
596.857000	36.332176
597.053000	36.525365
597.248000	36.515010
597.443000	36.580018
597.638000	36.640620
597.833000	36.482195
598.028000	36.579425
598.223000	36.872026
598.418000	36.539139
598.613000	36.130140
598.808000	36.235522
599.003000	36.296795
599.198000	36.375965
599.393000	36.420514
599.589000	36.614344
599.784000	36.249770
599.979000	36.532055
600.174000	36.808561
600.369000	36.478154
600.564000	36.452664
600.759000	36.837112
600.954000	36.948534
601.149000	36.708210
601.344000	36.346770
601.539000	36.574861
601.734000	36.409127
601.929000	36.230561
602.124000	36.429910
602.320000	36.718877
602.515000	37.063414
602.710000	37.026823
602.905000	36.506915
603.100000	36.273101
603.295000	36.413341
603.490000	36.551670
603.685000	36.739468
603.880000	36.778542
604.075000	36.649480
604.270000	36.578731
604.465000	36.516731
604.660000	36.095272
604.856000	36.302490
605.051000	36.612334
605.246000	36.696463
605.441000	36.540485
605.636000	36.465191
605.831000	36.543642
606.026000	36.494110
606.221000	36.314778
606.416000	36.521888
606.611000	36.552776
606.806000	36.387395
607.001000	36.928442
607.196000	36.502519
607.391000	36.357612
607.587000	36.719964
607.782000	36.439056
607.977000	36.260725
608.172000	36.663163
608.367000	36.818750
608.562000	36.677873
608.757000	36.451711
608.952000	36.228840
609.147000	36.647819
609.342000	36.809130
609.537000	36.300548
609.732000	36.381329
609.927000	36.210384
610.122000	36.272336
610.318000	36.727823
610.513000	36.507605
610.708000	36.039036
610.903000	36.412773
611.098000	36.484688
611.293000	36.113542
611.488000	36.306094
611.683000	36.217002
611.878000	36.016594
612.073000	35.832815
612.268000	35.865964
612.463000	36.341413
612.658000	36.017616
612.854000	35.827286
613.049000	35.707386
613.244000	35.650996
613.439000	35.759450
613.634000	35.557804
613.829000	35.621487
614.024000	35.503664
614.219000	35.557985
614.414000	35.777851
614.609000	35.634356
614.804000	35.220441
614.999000	34.955985
615.194000	35.112562
615.389000	35.357170
615.585000	35.140485
615.780000	35.475642
615.975000	35.240069
616.170000	35.439818
616.365000	35.493987
616.560000	35.383551
616.755000	35.213168
616.950000	35.325158
617.145000	35.436280
617.340000	34.785834
617.535000	34.403716
617.730000	35.008507
617.925000	34.834559
618.120000	34.517431
618.316000	34.994609
618.511000	34.740632
618.706000	34.636961
618.901000	34.661896
619.096000	34.738727
619.291000	34.499888
619.486000	34.516967
619.681000	34.180870
619.876000	33.901618
620.071000	33.912919
620.266000	34.131150
620.461000	34.309833
620.656000	33.964888
620.852000	33.587972
621.047000	33.763087
621.242000	33.857292
621.437000	34.205689
621.632000	34.297667
621.827000	33.754086
622.022000	33.404996
622.217000	33.338590
622.412000	33.537781
622.607000	33.413363
622.802000	33.179415
622.997000	33.345508
623.192000	33.481344
623.387000	33.406493
623.583000	33.017705
623.778000	33.356101
623.973000	33.149901
624.168000	32.834472
624.363000	32.828301
624.558000	33.017844
624.753000	32.543707
624.948000	32.790020
625.143000	32.660367
625.338000	32.472046
625.533000	32.328330
625.728000	32.311950
625.923000	32.647168
626.119000	32.529946
626.314000	32.290910
626.509000	32.261003
626.704000	32.190801
626.899000	32.004748
627.094000	31.796195
627.289000	31.797711
627.484000	32.146374
627.679000	31.998977
627.874000	31.615649
628.069000	31.622575
628.264000	31.352108
628.459000	31.681244
628.654000	31.487030
628.850000	31.057754
629.045000	31.098924
629.240000	31.116783
629.435000	30.886514
629.630000	30.832365
629.825000	30.904221
630.020000	31.079163
630.215000	30.524499
630.410000	30.612097
630.605000	30.417033
630.800000	30.432401
630.995000	30.641038
631.190000	30.787245
631.385000	30.457310
631.581000	30.294478
631.776000	30.266827
631.971000	29.892915
632.166000	30.017111
632.361000	29.768533
632.556000	29.715491
632.751000	29.628460
632.946000	29.414185
633.141000	29.748684
633.336000	29.822567
633.531000	29.627356
633.726000	29.372322
633.921000	29.239831
634.117000	28.858573
634.312000	28.736470
634.507000	28.939466
634.702000	28.605531
634.897000	28.508331
635.092000	28.597392
635.287000	28.475012
635.482000	28.459315
635.677000	28.371170
635.872000	28.151816
636.067000	28.154094
636.262000	27.956064
636.457000	27.787009
636.652000	27.612212
636.848000	27.637659
637.043000	27.794355
637.238000	27.874151
637.433000	27.606406
637.628000	27.316477
637.823000	27.589478
638.018000	27.727464
638.213000	27.102151
638.408000	26.829500
638.603000	26.939048
638.798000	26.665248
638.993000	26.816246
639.188000	26.761353
639.383000	26.669885
639.579000	26.755852
639.774000	26.416056
639.969000	26.176848
640.164000	26.086210
640.359000	25.985239
640.554000	25.975731
640.749000	26.025692
640.944000	26.197686
641.139000	26.158677
641.334000	25.758241
641.529000	25.187680
641.724000	25.211427
641.919000	25.358915
642.115000	25.783496
642.310000	25.485262
642.505000	25.243967
642.700000	25.333338
642.895000	25.242694
643.090000	25.293086
643.285000	25.084881
643.480000	25.112811
643.675000	25.134280
643.870000	25.124064
644.065000	24.820420
644.260000	24.395357
644.455000	24.337902
644.650000	24.125373
644.846000	24.325065
645.041000	24.189461
645.236000	23.812316
645.431000	23.705918
645.626000	23.580707
645.821000	23.623273
646.016000	23.729421
646.211000	23.952449
646.406000	23.625480
646.601000	23.721205
646.796000	23.626910
646.991000	23.073004
647.186000	22.915441
647.381000	23.153910
647.577000	23.302967
647.772000	23.319206
647.967000	22.856295
648.162000	22.807197
648.357000	22.650567
648.552000	22.641566
648.747000	22.692211
648.942000	22.691723
649.137000	22.444995
649.332000	22.007322
649.527000	22.028162
649.722000	22.532495
649.917000	22.417473
650.113000	21.787187
650.308000	21.787889
650.503000	21.806407
650.698000	21.907246
650.893000	21.937969
651.088000	21.838671
651.283000	21.825557
651.478000	21.369954
651.673000	21.090359
651.868000	21.041333
652.063000	21.387903
652.258000	21.259400
652.453000	21.484334
652.648000	20.889478
652.844000	20.805540
653.039000	20.718533
653.234000	20.182968
653.429000	20.104265
653.624000	20.242232
653.819000	20.424560
654.014000	20.160409
654.209000	19.867701
654.404000	20.169367
654.599000	19.943793
654.794000	19.648288
654.989000	19.898983
655.184000	19.837487
655.380000	19.266661
655.575000	19.130127
655.770000	19.154167
655.965000	19.212987
656.160000	19.346740
656.355000	19.219261
656.550000	19.076827
656.745000	19.105256
656.940000	18.965731
657.135000	19.139517
657.330000	19.023144
657.525000	18.485350
657.720000	18.587759
657.915000	18.469532
658.111000	18.157765
658.306000	18.576857
658.501000	18.408963
658.696000	18.284680
658.891000	18.378922
659.086000	17.903695
659.281000	17.847045
659.476000	17.629929
659.671000	17.284207
659.866000	17.291806
660.061000	17.585283
660.256000	17.789145
660.451000	17.695187
660.646000	17.231832
660.842000	17.479624
661.037000	17.203213
661.232000	16.865729
661.427000	16.938845
661.622000	16.836086
661.817000	16.831556
662.012000	16.802686
662.207000	16.387417
662.402000	16.515820
662.597000	16.590588
662.792000	16.044554
662.987000	16.229289
663.182000	16.342914
663.378000	16.244873
663.573000	16.038047
663.768000	15.861834
663.963000	15.990482
664.158000	16.007655
664.353000	16.432048
664.548000	16.282787
664.743000	15.766423
664.938000	15.381718
665.133000	15.349872
665.328000	15.532737
665.523000	15.579234
665.718000	15.171918
665.913000	15.371453
666.109000	15.333367
666.304000	15.521565
666.499000	15.206082
666.694000	15.192863
666.889000	15.199248
667.084000	14.950854
667.279000	14.828681
667.474000	14.658972
667.669000	14.582583
667.864000	14.316318
668.059000	14.435505
668.254000	14.697523
668.449000	14.405109
668.644000	14.174076
668.840000	14.253083
669.035000	14.029156
669.230000	13.856282
669.425000	14.078171
669.620000	13.709327
669.815000	13.726149
670.010000	13.787219
670.205000	14.011947
670.400000	13.618549
670.595000	13.503935
670.790000	13.579652
670.985000	13.635038
671.180000	13.584196
671.376000	13.018961
671.571000	12.882465
671.766000	12.986887
671.961000	12.942088
672.156000	13.016297
672.351000	13.160451
672.546000	12.980199
672.741000	12.918645
672.936000	12.711149
673.131000	13.195686
673.326000	12.856343
673.521000	12.281938
673.716000	12.097645
673.911000	11.922124
674.107000	12.380626
674.302000	12.599004
674.497000	12.512580
674.692000	11.966584
674.887000	11.889283
675.082000	12.346606
675.277000	12.338549
675.472000	11.939605
675.667000	11.643958
675.862000	11.327296
676.057000	11.572739
676.252000	11.793013
676.447000	11.651233
676.643000	11.616122
676.838000	11.706476
677.033000	11.372252
677.228000	11.623698
677.423000	11.639329
677.618000	11.180363
677.813000	10.976024
678.008000	11.270143
678.203000	11.299356
678.398000	11.077659
678.593000	10.960257
678.788000	11.030553
678.983000	10.774237
679.178000	10.892443
679.374000	10.751872
679.569000	10.757637
679.764000	10.448891
679.959000	10.106217
680.154000	10.090749
680.349000	9.985111
680.544000	10.191124
680.739000	10.187723
680.934000	9.837637
681.129000	9.768222
681.324000	9.506708
681.519000	9.979316
681.714000	10.115655
681.909000	9.784940
682.105000	9.413350
682.300000	10.010859
682.495000	10.139193
682.690000	10.001714
682.885000	9.661582
683.080000	9.384039
683.275000	9.254405
683.470000	9.597425
683.665000	9.924080
683.860000	10.013204
684.055000	9.793750
684.250000	9.145134
684.445000	9.148592
684.641000	9.555338
684.836000	9.146149
685.031000	8.961342
685.226000	8.991638
685.421000	9.171906
685.616000	8.816403
685.811000	8.828425
686.006000	8.982940
686.201000	8.793661
686.396000	8.496780
686.591000	8.486237
686.786000	8.555010
686.981000	8.251667
687.176000	8.465752
687.372000	8.512277
687.567000	8.895511
687.762000	8.752970
687.957000	8.548524
688.152000	8.352877
688.347000	8.246842
688.542000	8.024529
688.737000	7.544932
688.932000	7.567100
689.127000	7.755544
689.322000	8.096910
689.517000	7.841713
689.712000	7.520871
689.908000	7.745388
690.103000	7.722619
690.298000	7.761708
690.493000	7.857827
690.688000	7.393188
690.883000	7.542378
691.078000	7.849634
691.273000	7.821938
691.468000	7.426836
691.663000	7.483825
691.858000	7.667150
692.053000	7.532709
692.248000	7.597944
692.443000	7.520907
692.639000	7.478883
692.834000	7.767183
693.029000	8.049549
693.224000	7.690778
693.419000	6.971058
693.614000	6.867736
693.809000	6.911635
694.004000	6.837054
694.199000	6.728215
694.394000	6.780343
694.589000	6.396484
694.784000	6.383409
694.979000	6.706570
695.174000	6.684310
695.370000	7.084379
695.565000	6.856177
695.760000	6.556942
695.955000	6.898345
696.150000	6.930115
696.345000	6.293288
696.540000	6.423396
696.740000	6.319737
696.940000	6.493248
697.140000	6.865862
697.340000	6.498060
697.539000	6.551502
697.739000	6.184049
697.939000	6.138292
698.139000	6.124638
698.339000	5.765466
698.539000	5.591300
698.739000	5.828039
698.939000	5.924359
699.138000	5.538750
699.338000	6.307969
699.538000	6.463869
699.738000	5.821615
699.938000	5.775610
700.138000	5.622222
700.338000	5.577091
700.538000	5.949812
700.737000	6.152852
700.937000	5.419265
701.137000	5.386651
701.337000	5.887880
701.537000	5.880195
701.737000	5.687452
701.937000	5.452624
702.137000	5.370329
702.337000	5.182897
702.536000	5.131315
702.736000	5.261961
702.936000	5.030808
703.136000	5.514509
703.336000	5.440348
703.536000	5.298777
703.736000	4.810428
703.936000	4.831819
704.135000	4.871186
704.335000	5.136242
704.535000	4.845640
704.735000	4.724420
704.935000	5.207556
705.135000	5.064207
705.335000	4.890713
705.535000	4.936275
705.735000	5.062427
705.934000	5.112733
706.134000	4.860475
706.334000	4.776538
706.534000	4.592197
706.734000	4.468271
706.934000	4.457392
707.134000	4.649950
707.334000	4.638531
707.533000	4.497642
707.733000	4.409040
707.933000	4.253272
708.133000	4.632081
708.333000	4.913481
708.533000	4.407010
708.733000	4.535205
708.933000	4.420984
709.132000	4.052640
709.332000	3.919251
709.532000	4.090084
709.732000	4.407996
709.932000	3.953209
710.132000	3.939917
710.332000	3.635429
710.532000	4.223077
710.732000	4.343155
710.931000	3.846911
711.131000	3.840150
711.331000	4.137636
711.531000	4.024461
711.731000	4.111276
711.931000	3.887668
712.131000	3.729571
712.331000	4.037731
712.530000	3.682431
712.730000	3.593319
712.930000	3.778689
713.130000	3.714836
713.330000	3.620187
713.530000	3.799525
713.730000	4.598500
713.930000	4.187478
714.129000	3.574936
714.329000	3.375641
714.529000	3.561515
714.729000	4.135324
714.929000	4.057706
715.129000	3.496990
715.329000	3.589325
715.529000	3.671125
715.729000	4.077188
715.928000	3.796509
716.128000	3.507764
716.328000	3.394648
716.528000	3.218650
716.728000	3.624242
716.928000	3.377186
717.128000	3.553800
717.328000	3.451796
717.527000	3.173908
717.727000	3.256063
717.927000	3.538463
718.127000	3.449791
718.327000	3.081250
718.527000	2.977541
718.727000	3.389331
718.927000	3.156437
719.127000	2.826274
719.326000	3.031069
719.526000	3.412936
719.726000	3.454389
719.926000	2.836457
720.126000	2.756616
720.326000	3.042949
720.526000	3.020571
720.726000	2.880111
720.925000	3.192824
721.125000	2.649935
721.325000	2.912202
721.525000	3.000251
721.725000	2.803862
721.925000	2.927804
722.125000	2.823595
722.325000	3.171415
722.524000	3.076294
722.724000	2.567348
722.924000	2.275861
723.124000	2.453704
723.324000	2.911733
723.524000	3.066347
723.724000	2.554283
723.924000	2.598672
724.124000	2.834504
724.323000	3.143996
724.523000	2.718189
724.723000	3.065571
724.923000	3.090037
725.123000	3.046121
725.323000	3.086997
725.523000	2.725962
725.723000	2.285610
725.922000	2.465749
726.122000	2.835897
726.322000	2.594008
726.522000	2.322976
726.722000	3.045024
726.922000	2.639278
727.122000	2.624635
727.322000	3.105150
727.521000	2.574645
727.721000	2.338916
727.921000	2.422863
728.121000	2.338441
728.321000	1.994874
728.521000	2.324692
728.721000	2.485253
728.921000	2.604802
729.121000	3.296652
729.320000	2.503303
729.520000	2.153302
729.720000	1.927015
729.920000	1.972655
730.120000	2.270736
730.320000	2.373526
730.520000	2.094862
730.720000	1.991693
730.919000	2.137652
731.119000	2.422547
731.319000	1.826913
731.519000	1.569732
731.719000	2.085177
731.919000	1.963784
732.119000	1.721621
732.319000	1.616239
732.519000	1.888057
732.718000	1.582226
732.918000	1.719358
733.118000	1.971119
733.318000	2.262203
733.518000	2.001770
733.718000	1.606874
733.918000	1.732160
734.118000	1.868290
734.317000	2.212889
734.517000	1.823447
734.717000	1.732041
734.917000	2.275697
735.117000	2.340952
735.317000	1.976050
735.517000	2.371920
735.717000	2.492638
735.916000	1.772780
736.116000	1.783865
736.316000	1.845682
736.516000	1.768914
736.716000	1.668170
736.916000	1.202970
737.116000	1.413932
737.316000	2.028909
737.516000	2.187033
737.715000	1.841463
737.915000	1.186631
738.115000	1.035634
738.315000	1.436505
738.515000	1.203953
738.715000	1.522541
738.915000	2.018478
739.115000	1.592198
739.314000	1.564748
739.514000	1.988089
739.714000	2.045453
739.914000	1.867683
740.114000	1.608192
740.314000	1.727819
740.514000	2.033597
740.714000	1.339605
740.913000	0.931012
741.113000	1.343657
741.313000	1.688529
741.513000	1.493758
741.713000	1.631144
741.913000	1.893458
742.113000	1.422282
742.313000	1.143740
742.513000	1.453489
742.712000	1.350481
742.912000	1.229625
743.112000	1.220269
743.312000	0.545499
743.512000	1.048691
743.712000	1.705337
743.912000	1.026490
744.112000	0.672488
744.311000	0.633273
744.511000	1.004382
744.711000	1.542610
744.911000	1.324719
745.111000	1.119765
745.311000	1.466914
745.511000	1.026737
745.711000	1.055369
745.911000	1.153687
746.110000	0.599982
746.310000	0.715028
746.510000	1.200267
746.710000	1.569042
746.910000	1.500517
747.110000	0.858619
747.310000	0.607556
747.510000	0.905650
747.709000	1.202404
747.909000	1.431605
748.109000	1.464803
748.309000	1.183614
748.509000	0.943539
748.709000	0.918467
748.909000	0.918183
749.109000	0.950876
749.308000	1.727093
749.508000	1.286747
749.708000	0.941241
749.908000	1.619064
750.108000	1.522655
750.308000	0.729884
750.508000	1.299113
750.708000	0.819312
750.908000	0.237720
751.107000	0.969903
751.307000	1.845458
751.507000	1.002206
751.707000	0.722489
751.907000	0.871174
752.107000	1.345824
752.307000	0.936224
752.507000	0.938676
752.706000	0.834305
752.906000	1.578598
753.106000	0.868782
753.306000	0.512704
753.506000	1.368439
753.706000	1.100842
753.906000	1.311303
754.106000	1.343122
754.305000	1.194263
754.505000	1.167192
754.705000	0.930656
754.905000	1.327350
755.105000	1.649085
755.305000	0.538263
755.505000	0.631566
755.705000	1.045758
755.905000	0.803187
756.104000	0.419617
756.304000	0.081683
756.504000	-0.242465
756.704000	0.827421
756.904000	1.214826
757.104000	0.810290
757.304000	0.733525
757.504000	1.315314
757.703000	1.096671
757.903000	1.458975
758.103000	1.367948
758.303000	0.664684
758.503000	0.493133
758.703000	0.794328
758.903000	0.636694
759.103000	0.622613
759.303000	0.912136
759.502000	1.170517
759.702000	1.393547
759.902000	0.710761
760.102000	0.471223
760.302000	0.843957
760.502000	1.179300
760.702000	1.309888
760.902000	1.086622
761.101000	0.523014
761.301000	0.199515
761.501000	0.394291
761.701000	0.476376
761.901000	0.936468
762.101000	0.954850
762.301000	0.447131
762.501000	0.283580
762.700000	0.416625
762.900000	0.499140
763.100000	0.780073
763.300000	1.048210
763.500000	1.065824
763.703000	0.616211
763.905000	0.004975
764.108000	0.604113
764.311000	0.787282
764.513000	0.721575
764.716000	0.573909
764.919000	0.457396
765.121000	0.072072
765.324000	0.005043
765.527000	-0.062534
765.729000	-0.062532
765.932000	1.156192
766.135000	1.071235
766.337000	0.580763
766.540000	0.956396
766.743000	1.151757
766.945000	0.261322
767.148000	-0.046220
767.351000	0.039367
767.553000	1.070327
767.756000	0.658702
767.958000	0.177126
768.161000	0.263338
768.364000	0.057008
768.566000	-0.427627
768.769000	0.734777
768.972000	1.064670
769.174000	0.458175
769.377000	-0.256823
769.580000	-0.449961
769.782000	0.337615
769.985000	-0.100028
770.188000	-1.173292
770.390000	-0.153795
770.593000	1.735543
770.796000	1.524809
770.998000	0.889255
771.201000	0.182286
771.404000	0.501550
771.606000	0.307818
771.809000	0.396653
772.012000	0.272668
772.214000	-0.476207
772.417000	-0.458420
772.620000	0.467673
772.822000	0.399616
773.025000	0.130840
773.228000	0.023344
773.430000	-0.066551
773.633000	0.528009
773.836000	0.853547
774.038000	0.820546
774.241000	0.512476
774.444000	0.314243
774.646000	1.384822
774.849000	0.860418
775.052000	0.332832
775.254000	0.625072
775.457000	0.242154
775.659000	0.169731
775.862000	0.096752
776.065000	0.371187
776.267000	1.251015
776.470000	1.366996
776.673000	0.355334
776.875000	0.651816
777.078000	0.650782
777.281000	0.005552
777.483000	0.803851
777.686000	0.768157
777.889000	0.638647
778.091000	0.696896
778.294000	-0.386199
778.497000	0.099009
778.699000	0.211263
778.902000	-0.050651
779.105000	0.099433
779.307000	0.907450
779.510000	0.062138
779.713000	0.572762
779.915000	0.460861
780.118000	1.410515
780.321000	1.317209
780.523000	0.501055
780.726000	0.253491
780.929000	0.291505
781.131000	0.062971
781.334000	-0.664607
781.537000	-0.743292
781.739000	0.294128
781.942000	0.005772
782.145000	-0.438998
782.347000	-0.381221
782.550000	-0.207192
782.753000	-0.305010
782.955000	-0.169478
783.158000	-0.305658
783.361000	0.005855
783.563000	-0.013664
783.766000	0.123295
783.968000	2.220750
784.171000	2.368773
784.374000	0.931447
784.576000	0.439008
784.779000	0.654528
784.982000	1.053675
785.184000	0.085467
785.387000	0.782319
785.590000	1.518042
785.792000	1.443914
785.995000	0.866074
786.198000	0.326559
786.400000	0.166987
786.603000	0.429620
786.806000	0.307647
787.008000	1.031420
787.211000	0.934252
787.414000	0.107310
787.616000	-0.075198
787.819000	-0.116119
788.022000	-0.911844
788.224000	-0.382414
788.427000	-0.955552
788.630000	0.006160
788.832000	0.313819
789.035000	-0.239597
789.238000	-0.569812
789.440000	-0.097247
789.643000	1.079888
789.846000	0.441054
790.048000	0.317581
790.251000	0.629087
790.454000	0.130538
790.656000	0.754925
790.859000	0.193858
791.062000	-0.432251
791.264000	-0.098063
791.467000	-0.433722
791.669000	-0.958939
791.872000	0.259385
792.075000	-0.309638
792.277000	-0.267554
792.480000	-0.014827
792.683000	-0.542884
792.885000	-0.775997
793.088000	-0.248296
793.291000	-0.334017
793.493000	-0.441195
793.696000	0.176973
793.899000	0.284366
794.101000	-0.036432
794.304000	-0.272782
794.507000	0.135518
794.709000	0.373169
794.912000	0.136441
795.115000	-0.297275
795.317000	0.158359
795.520000	0.311566
795.723000	0.137817
795.925000	-0.300134
796.128000	-0.627942
796.331000	-0.212929
796.533000	-0.455476
796.736000	0.117205
796.939000	-0.015517
797.141000	-0.371168
797.344000	0.273636
797.547000	0.652114
797.749000	0.229571
797.952000	-0.486114
798.155000	-0.485052
798.357000	-0.802795
798.560000	-0.490728
798.763000	0.616732
798.965000	-0.038368
799.168000	-0.083751
799.371000	0.233416
799.573000	-0.015916
799.776000	-0.881255
799.978000	-0.975716
800.181000	-0.359440
800.384000	1.313869
800.586000	0.696401
800.789000	-0.567448
800.992000	-0.383399
801.194000	-0.775395
801.397000	-0.800468
801.600000	-0.687471
801.802000	0.957403
802.005000	1.006962
802.208000	-0.692661
802.410000	0.356519
802.613000	0.264474
802.816000	-0.086699
803.018000	-0.721280
803.221000	-0.087092
803.424000	1.257202
803.626000	0.503189
803.829000	-0.419476
804.032000	0.339794
804.234000	1.907487
804.437000	0.484295
804.640000	-0.183544
804.842000	-0.231747
805.045000	-0.905187
805.248000	-0.642274
805.450000	-0.281171
805.653000	0.128176
805.856000	-0.379275
806.058000	0.128429
806.261000	-0.939984
806.464000	-0.430345
806.666000	-0.382323
806.869000	-0.458297
807.072000	-1.364940
807.274000	-1.586528
807.477000	-0.607330
807.679000	-0.287922
807.882000	-0.757224
808.085000	-0.389855
808.287000	0.106881
808.490000	-0.689835
808.693000	-0.640479
808.895000	-0.666148
809.098000	-0.092357
809.301000	0.483368
809.503000	-0.294297
809.706000	0.639858
809.909000	1.297207
810.111000	0.792584
810.314000	0.312173
810.517000	-0.144195
810.719000	-0.679248
810.922000	-0.401099
811.125000	0.695954
811.327000	0.879403
811.530000	0.059202
811.735000	-0.480616
811.940000	-0.481691
812.146000	-0.121576
812.351000	0.188846
812.556000	-0.329595
812.761000	-0.617022
812.967000	0.583079
813.172000	0.530226
813.377000	-0.044541
813.582000	1.112979
813.788000	0.882224
813.993000	-0.441327
814.198000	0.378273
814.403000	-0.838083
814.609000	-0.125040
814.814000	-0.072156
815.019000	1.021668
815.224000	0.967819
815.429000	-0.770274
815.635000	-0.126539
815.840000	0.412371
816.045000	0.224724
816.250000	0.414918
816.456000	-0.833972
816.661000	-1.847520
816.866000	-1.413984
817.071000	-0.702447
817.277000	-1.312171
817.482000	-0.432635
817.687000	-0.156971
817.892000	-0.324028
818.097000	0.258359
818.303000	0.425038
818.508000	1.145087
818.713000	2.595745
818.918000	1.316901
819.124000	1.096984
819.329000	0.176599
819.534000	-0.188371
819.739000	-0.357092
819.945000	-0.669527
820.150000	-0.701743
820.355000	-0.959301
820.560000	-0.246987
820.766000	0.378545
820.971000	0.466606
821.176000	-1.454872
821.381000	-2.251836
821.586000	-1.085172
821.792000	0.817448
821.997000	0.673650
822.202000	0.066563
822.407000	-0.687969
822.613000	-0.980306
822.818000	-0.312067
823.023000	0.388369
823.228000	-0.343855
823.434000	-0.167386
823.639000	0.479693
823.844000	-0.758318
824.049000	0.215557
824.255000	0.334750
824.460000	-0.556553
824.665000	-0.527524
824.870000	0.517350
825.075000	-0.140729
825.281000	0.099108
825.486000	1.489389
825.691000	-0.111949
825.896000	-1.355109
826.102000	0.069769
826.307000	0.039531
826.512000	-0.418152
826.717000	-0.419442
826.923000	-0.666268
827.128000	-0.021540
827.333000	-1.043683
827.538000	-0.021760
827.744000	0.881866
827.949000	-0.737124
828.154000	-0.615197
828.359000	0.165427
828.564000	-0.523866
828.770000	-0.179544
828.975000	0.956583
829.180000	-0.339515
829.385000	-1.734993
829.591000	-0.850441
829.796000	-0.310506
830.001000	-0.503531
830.206000	-0.537294
830.412000	-0.890291
830.617000	-0.473606
830.822000	0.624911
831.027000	-0.281069
831.232000	-1.095343
831.438000	-0.644827
831.643000	0.304385
831.848000	-0.744781
832.053000	-0.681755
832.259000	-0.484744
832.464000	-1.345882
832.669000	-1.284371
832.874000	-0.950944
833.080000	-0.655624
833.285000	0.376680
833.490000	0.210156
833.695000	-1.366617
833.901000	-0.360973
834.106000	-1.172417
834.311000	-0.125670
834.516000	0.282341
834.721000	-0.947585
834.927000	0.319457
835.132000	-0.299433
835.337000	0.699717
835.542000	0.183771
835.748000	-1.616125
835.953000	0.184049
836.158000	0.358557
836.363000	-0.094368
836.569000	0.045789
836.774000	-0.695094
836.979000	-0.413324
837.184000	-0.733041
837.390000	-0.911765
837.595000	-0.345051
837.800000	-0.131920
838.005000	0.154251
838.210000	0.046654
838.416000	-0.205354
838.621000	0.408200
838.826000	-0.061373
839.031000	0.119748
839.237000	-0.062149
839.442000	-1.343836
839.647000	-2.073072
839.852000	-1.017138
840.058000	-0.468026
840.263000	-1.210995
840.468000	-1.286355
840.673000	0.122346
840.878000	0.270899
841.084000	-1.034058
841.289000	-0.624990
841.494000	2.423175
841.699000	2.242143
841.905000	1.679397
842.110000	1.459784
842.315000	-1.019823
842.520000	-1.171428
842.726000	-0.715246
842.931000	-1.593667
843.136000	-0.989292
843.341000	-2.004975
843.547000	-1.110735
843.752000	-0.027122
843.957000	-0.847671
844.162000	-0.459208
844.367000	-0.932219
844.573000	-0.185666
844.778000	0.130017
844.983000	0.999243
845.188000	1.282255
845.394000	-0.909292
845.599000	-1.026935
845.804000	-0.870059
846.009000	0.819552
846.215000	-0.555660
846.420000	-1.167187
846.625000	-0.558974
846.830000	1.109862
847.036000	-0.477960
847.241000	-0.931256
847.446000	0.381482
847.651000	0.094742
847.856000	-0.818836
848.062000	-1.113085
848.267000	0.554622
848.472000	0.138090
848.677000	-0.994509
848.883000	1.059416
849.088000	2.212196
849.293000	0.182599
849.498000	0.267188
849.704000	1.373707
849.909000	0.183352
850.114000	-1.266445
850.319000	-0.329072
850.524000	-0.330882
850.730000	0.185826
850.935000	-0.247317
851.140000	0.187065
851.345000	1.404961
851.551000	1.540072
851.756000	0.758827
851.961000	-0.558540
852.166000	-0.910849
852.372000	-0.163231
852.577000	0.279965
852.782000	0.013433
852.987000	0.861714
853.193000	0.909629
853.398000	-0.210667
853.603000	-1.603746
853.808000	-1.289962
854.013000	0.149267
854.219000	1.826175
854.424000	2.379144
854.629000	2.019670
854.834000	0.013769
855.040000	0.614315
855.245000	0.566227
855.450000	-2.602137
855.655000	-3.859582
855.861000	-3.512859
856.066000	-1.716894
856.271000	-2.141373
856.476000	-0.926265
856.682000	-1.449026
856.887000	-4.041441
857.092000	-1.072728
857.297000	1.247855
857.502000	0.584746
857.708000	0.014290
857.913000	1.636645
858.118000	0.303379
858.323000	-0.323590
858.529000	0.593134
858.734000	-0.807503
858.939000	-0.179435
859.144000	-1.445206
859.350000	-2.662084
859.555000	-2.816866
859.760000	0.505579
859.965000	0.505432
860.171000	-1.069447
860.376000	1.054116
860.581000	-0.530949
860.786000	-3.522971
860.991000	-3.538334
861.197000	-2.085693
861.402000	0.165528
861.607000	-0.788016
861.812000	-2.152425
862.018000	-2.312486
862.223000	-0.998726
862.428000	0.372268
862.633000	2.311148
862.839000	1.144852
863.044000	-0.968059
863.249000	-1.894726
863.454000	0.325576
863.659000	-0.606476
863.865000	-1.703450
864.070000	-0.976699
864.275000	-1.658458
864.480000	-1.193036
864.686000	-2.146959
864.891000	-1.304031
865.096000	0.705394
865.301000	0.812985
865.507000	1.405707
865.712000	0.336706
865.917000	-0.414175
866.122000	1.040949
866.328000	-2.587298
866.533000	-3.398540
866.738000	0.830366
866.943000	0.179476
867.148000	0.836795
867.354000	-2.022967
867.559000	-1.913277
867.764000	0.903136
867.969000	1.130469
868.175000	-1.981357
868.380000	-2.600950
868.585000	-3.385081
868.790000	0.072748
868.996000	-0.264750
869.201000	-3.371695
869.406000	-4.180331
869.611000	-2.084603
869.817000	-0.947525
870.022000	2.921682
870.227000	0.588055
870.432000	-1.646627
870.637000	-0.269965
870.843000	-0.907038
871.048000	-0.213864
871.253000	1.521046
871.458000	0.482463
871.664000	-2.205358
871.869000	-2.630291
872.074000	-2.520173
872.279000	-1.221135
872.485000	-0.991515
872.690000	-1.711369
872.895000	-1.598690
873.100000	-1.840368
873.306000	-1.667587
873.511000	-0.406162
873.716000	1.840847
873.921000	-0.042417
874.126000	-1.681166
874.332000	-0.717092
874.537000	0.326443
874.742000	-0.104370
874.947000	0.018496
875.153000	1.947896
875.358000	0.704883
875.563000	0.018696
875.768000	-3.548440
875.974000	-3.688701
876.179000	0.648513
876.384000	0.651665
876.589000	-1.896098
876.794000	-0.939541
877.000000	-2.027756
877.205000	-3.813993
877.410000	-0.686946
877.615000	-2.031716
877.821000	-4.377509
878.026000	-2.438896
878.231000	-2.567698
878.436000	-2.766367
878.642000	-2.915959
878.847000	-1.026453
879.052000	-0.502702
879.257000	-1.824144
879.463000	-3.343387
879.668000	-1.431430
879.873000	0.814593
880.078000	-1.706205
880.283000	-4.778649
880.489000	-4.778545
880.694000	-3.862205
880.899000	-1.800672
881.104000	0.155744
881.310000	2.796548
881.515000	1.102454
881.720000	0.833914
881.925000	3.838547
882.131000	6.497984
882.336000	2.081886
882.541000	-3.441697
882.746000	-2.623582
882.952000	-3.107103
883.157000	-2.696669
883.362000	-2.421658
883.567000	-3.973568
883.772000	-3.020224
883.978000	-2.032209
884.183000	-1.469070
884.388000	-0.899207
884.593000	-2.812041
884.799000	1.017433
885.004000	0.310263
885.209000	-1.349861
885.414000	1.172584
885.620000	-3.166416
885.825000	-0.926830
886.030000	-1.289198
886.235000	-2.176517
886.440000	-1.012343
886.646000	-3.314018
886.851000	-3.703246
887.056000	1.143686
887.261000	0.022443
887.467000	-2.906953
887.672000	0.022688
887.877000	-2.409601
888.082000	-5.246996
888.288000	-4.390785
888.493000	-5.866684
888.698000	-4.055766
888.903000	-2.060095
889.109000	-2.286821
889.314000	0.947606
889.519000	-1.972429
889.724000	0.714785
889.929000	-0.284709
890.135000	-1.057028
890.340000	-2.386346
890.545000	-3.239912
890.750000	-3.169198
890.956000	-2.398484
891.161000	0.335459
891.366000	0.023470
891.571000	0.415614
891.777000	-1.389289
891.982000	1.127903
892.187000	0.895100
892.392000	1.604186
892.598000	1.613344
892.803000	1.226718
893.008000	-1.497836
893.213000	-1.573767
893.418000	-1.665309
893.624000	-2.077930
893.829000	-3.534819
894.034000	-1.596897
894.239000	-0.464319
894.445000	-1.682306
894.650000	-2.507591
894.855000	-2.592500
895.060000	-2.179944
895.266000	-0.632690
895.471000	-3.017329
895.676000	0.519770
895.881000	0.441030
896.087000	-1.972536
896.292000	-2.990617
896.497000	1.877261
896.702000	0.025153
896.907000	-3.333771
897.113000	1.626687
897.318000	3.816148
897.523000	2.305860
897.728000	-1.585552
897.934000	-2.932692
898.139000	-2.601785
898.344000	0.196754
898.549000	-0.060223
898.755000	-3.075702
898.960000	-4.048243
899.165000	-4.830588
899.370000	0.374493
899.575000	3.169485
899.781000	-1.549839
899.986000	-4.176903
900.191000	-2.969827
900.396000	-1.738087
900.602000	-1.482249
900.807000	-0.330723
901.012000	0.656758
901.217000	-0.514084
901.423000	-3.837920
901.628000	-1.866766
901.833000	1.749180
902.038000	0.118736
902.244000	-2.705221
902.449000	-1.071968
902.654000	-2.379483
902.859000	-1.265471
903.064000	0.213470
903.270000	0.959411
903.475000	-3.141450
903.680000	-5.000704
903.885000	-3.444857
904.091000	-3.745628
904.296000	-3.665794
904.501000	-2.444050
904.706000	-3.310562
904.912000	1.571894
905.117000	-0.648823
905.322000	-2.899475
905.527000	-2.886029
905.733000	-2.401742
905.938000	-1.340477
906.143000	-0.366377
906.348000	-1.456774
906.553000	1.626922
906.759000	1.326659
906.964000	-0.471146
907.169000	-1.683503
907.374000	-5.703075
907.580000	-3.205472
907.785000	-0.997757
907.990000	28.537670
908.195000	21.087386
908.401000	0.447071
908.606000	-7.913778
908.811000	-8.323663
909.016000	-0.907403
909.221000	-0.701017
909.427000	-0.915458
909.632000	-1.666539
909.837000	-1.678153
910.042000	-5.649354
910.248000	-6.970169
910.453000	-2.240761
910.658000	-2.366917
910.863000	-2.364450
911.069000	-4.450866
911.274000	-2.831136
911.479000	0.587446
911.684000	-5.171593
911.890000	-2.866678
912.095000	-1.194991
912.300000	-4.802804
912.506000	-4.692795
912.711000	-5.093091
912.917000	-1.562363
913.123000	-1.677902
913.328000	-1.573421
913.534000	-1.703756
913.740000	8.788622
913.946000	5.665524
914.151000	-4.839630
914.357000	-3.898556
914.563000	0.739631
914.768000	-2.804271
914.974000	-4.149284
915.180000	-4.551862
915.385000	-5.054992
915.591000	-6.200570
915.797000	-0.576689
916.002000	3.371872
916.208000	-0.577893
916.414000	-4.313432
916.620000	-5.194663
916.825000	-2.211836
917.031000	-2.338578
917.237000	-7.369801
917.442000	-2.626953
917.648000	-3.670785
917.854000	-4.690902
918.059000	-0.347480
918.265000	-0.089975
918.471000	-0.477989
918.676000	-4.791775
918.882000	-8.634805
919.088000	-4.832230
919.294000	-8.584590
919.499000	-6.506334
919.705000	-0.228357
919.911000	-2.646140
920.116000	-2.401294
920.322000	-5.272598
920.528000	-3.520175
920.733000	-7.458059
920.939000	-9.022837
921.145000	-6.080450
921.350000	-3.480845
921.556000	-2.941139
921.762000	-3.500664
921.968000	-2.657863
922.173000	-3.534177
922.379000	-8.907829
922.585000	-5.335760
922.790000	-6.219093
922.996000	-6.267531
923.202000	-6.937496
923.407000	-5.934531
923.613000	-4.894713
923.819000	-1.758234
924.024000	-1.299336
924.230000	-1.157243
924.436000	-2.525743
924.642000	9.998948
924.847000	7.163167
925.053000	-1.190036
925.259000	-6.917800
925.464000	0.825585
925.670000	-1.042819
925.876000	-4.674815
926.081000	-5.649353
926.287000	1.633443
926.493000	5.051318
926.698000	-0.921423
926.904000	-0.594449
927.110000	-3.668894
927.316000	-2.710528
927.521000	4.968027
927.727000	-2.779326
927.933000	-5.967205
928.138000	-3.139357
928.344000	-7.421521
928.550000	-3.010414
928.755000	2.460073
928.961000	-4.069095
929.167000	-7.548669
929.372000	0.225451
929.578000	2.852835
929.784000	-1.533824
929.990000	-7.208490
930.195000	-4.741426
930.401000	-1.914264
930.607000	2.564483
930.812000	1.321937
931.018000	-6.673461
931.224000	-10.448347
931.429000	-6.608235
931.635000	-10.103319
931.841000	-9.269610
932.046000	-5.930549
932.252000	-0.319777
932.458000	5.751073
932.664000	0.249523
932.869000	-4.169472
933.075000	-9.807919
933.281000	-9.358898
933.486000	1.649977
933.692000	-2.935421
933.898000	-5.887714
934.103000	3.685289
934.309000	-3.022510
934.515000	1.525650
934.720000	4.886272
934.926000	5.773131
935.132000	5.354499
935.338000	0.492047
935.543000	-10.785023
935.749000	-8.476766
935.955000	-8.295723
936.160000	-7.278858
936.366000	1.411388
936.572000	2.124536
936.777000	2.401141
936.983000	7.080137
937.189000	-0.164850
937.394000	-9.714398
937.600000	-0.647436
937.806000	5.869366
938.012000	-1.889208
938.217000	11.691571
938.423000	9.534487
938.629000	-0.423263
938.834000	-12.964356
939.040000	-10.683080
939.246000	-5.800290
939.451000	-5.873412
939.657000	-0.444208
939.863000	-3.365413
940.068000	3.023474
940.274000	-1.266150
940.480000	4.995486
940.686000	0.361353
940.891000	-5.981082
941.097000	23.622570
941.303000	10.490218
941.508000	-6.987242
941.714000	-5.887554
941.920000	-10.286960
942.125000	-0.781961
942.331000	0.378253
942.537000	9.681761
942.742000	8.017941
942.948000	-2.849277
943.154000	-7.539913
943.360000	-19.053835
943.565000	-4.703637
943.771000	5.232298
943.977000	7.899949
944.182000	-8.905955
944.388000	-11.655105
944.594000	0.396751
944.799000	12.424039
945.005000	2.819081
945.211000	12.252262
945.416000	7.501822
945.622000	-9.192167
945.828000	-1.470347
946.034000	4.546753
946.239000	6.810244
946.445000	2.927607
946.651000	-9.932155
946.856000	-11.213959
947.062000	-0.851129
947.268000	1.365006
947.473000	-9.147636
947.679000	-9.524006
947.885000	5.564876
948.090000	14.337467
948.296000	12.934386
948.502000	-0.875826
948.708000	-8.409352
948.913000	-12.482418
949.119000	3.078088
949.325000	3.742415
949.530000	-13.156748
949.736000	-18.395660
949.942000	-7.796591
950.147000	-13.817893
950.353000	-12.714930
950.559000	-6.476670
950.764000	18.018527
950.970000	13.798141
951.176000	-6.658053
951.382000	-15.244195
951.587000	-1.285625
951.793000	12.346631
951.999000	10.102354
952.204000	-7.555091
952.410000	-24.395632
952.616000	-1.609149
952.821000	5.272291
953.027000	-12.668585
953.233000	-15.707453
953.438000	-10.157757
953.644000	10.719525
953.850000	1.876285
954.056000	-12.414337
954.261000	-14.291414
954.467000	2.273221
954.673000	5.509130
954.878000	-4.588651
955.084000	-0.614988
955.290000	-13.693246
955.495000	-19.561713
955.701000	-18.056279
955.907000	3.070670
956.112000	4.180979
956.318000	10.377836
956.524000	12.352055
956.730000	-2.901106
956.935000	-8.956390
957.141000	-10.396893
957.347000	2.780318
957.552000	4.299280
957.758000	-15.495655
957.964000	-32.959930
958.169000	7.072237
958.375000	8.257118
958.581000	-3.778652
958.786000	-10.207750
958.992000	-20.549699
959.198000	-5.057760
959.404000	-1.865125
959.609000	-6.952901
959.815000	-10.294944
960.021000	9.415471
960.226000	6.237428
960.432000	-23.769553
960.638000	-16.493022
960.843000	-5.661278
961.049000	-10.419025
961.255000	6.396661
961.460000	-5.347874
961.666000	-27.884481
961.872000	-17.456966
962.078000	-15.476637
962.283000	-16.998021
962.489000	-11.780714
962.695000	-5.540492
962.900000	-2.034279
963.106000	0.131253
963.312000	-1.639815
963.517000	-18.162653
963.723000	-15.668637
963.929000	11.819444
964.134000	12.244840
964.340000	-6.213582
964.546000	1.068473
964.752000	-9.982305
964.957000	-20.739869
965.163000	3.413977
965.369000	0.615949
965.574000	3.015821
965.780000	-6.563688
966.000000	-9.925478
966.220000	-6.125971
966.440000	-9.067860
966.661000	5.024802
966.881000	-11.108116
967.101000	-33.355844
967.321000	-36.615497
967.541000	-6.296378
967.761000	-16.399614
967.981000	-4.861388
968.202000	-10.106079
968.422000	7.880403
968.642000	11.450482
968.862000	11.689795
969.082000	-3.009906
969.302000	4.525539
969.522000	-2.518769
969.743000	5.375150
969.963000	-17.441065
970.183000	-23.774639
970.403000	-19.005697
970.623000	-12.159627
970.843000	-0.385712
971.063000	2.965465
971.284000	-12.778306
971.504000	-23.497706
971.724000	0.743382
971.944000	-20.842038
972.164000	-26.204532
972.384000	-6.732790
972.604000	-27.841849
972.825000	-39.447737
973.045000	-26.606112
973.265000	36.401687
973.485000	18.326096
973.705000	-8.940727
973.925000	-8.458567
974.145000	-35.964871
974.365000	-4.236743
974.586000	-3.625517
974.806000	-19.856048
975.026000	0.191579
975.246000	-14.755375
975.466000	-23.046646
975.686000	-4.258395
975.906000	-14.441985
976.127000	-32.246500
976.347000	-26.332326
976.567000	-4.448583
976.787000	-4.462313
977.007000	-16.900161
977.227000	-18.548860
977.447000	-19.562342
977.668000	-33.152174
977.888000	-22.971225
978.108000	-27.272576
978.328000	-7.672972
978.548000	35.527285
978.768000	31.153211
978.988000	12.251575
979.209000	3.217335
979.429000	-3.536858
979.649000	6.105897
979.869000	-12.396790
980.089000	-25.964199
980.309000	-36.912000
980.529000	-39.607162
980.750000	-13.910434
980.970000	-28.225653
981.190000	-14.626268
981.410000	-12.179717
981.630000	-22.462687
981.850000	-8.255862
982.070000	-0.592697
982.291000	-41.743212
982.511000	-39.046524
982.731000	14.036539
982.951000	-10.128269
983.171000	-29.922317
983.391000	-19.572312
983.611000	6.377861
983.832000	-8.658999
984.052000	-32.307597
984.272000	-9.832011
984.492000	-12.414521
984.712000	-19.772317
984.932000	-29.793761
985.152000	-47.119764
985.373000	-43.446350
985.593000	-11.986364
985.813000	-28.096872
986.033000	-33.541131
986.253000	12.241517
986.473000	8.801316
986.693000	-11.400981
986.914000	-19.071480
987.134000	9.484168
987.354000	-12.138627
987.574000	201.175185
987.794000	127.334992
988.014000	-22.871753
988.234000	-16.033844
988.455000	8.042187
988.675000	-7.418137
988.895000	-23.718147
989.115000	-27.489763
989.335000	-9.812682
989.555000	4.841219
989.775000	-26.846643
989.995000	-10.535630
990.216000	-4.193504
990.436000	11.878124
990.656000	18.661251
990.876000	-26.513945
991.096000	7.668357
991.316000	34.126082
991.536000	0.380651
991.757000	-2.173654
991.977000	-52.341213
992.197000	0.386520
992.417000	-8.464764
992.637000	-61.048529
992.857000	-72.302718
993.077000	-61.265470
993.298000	-35.243662
993.518000	-5.365848
993.738000	-97.279942
993.958000	-47.737252
994.178000	-22.986232
994.398000	-35.745237
994.618000	-83.093892
994.839000	-124.384585
995.059000	-25.201444
995.279000	57.071038
995.499000	8.165500
995.719000	12.320470
995.939000	4.908957
996.159000	-12.232571
996.380000	-19.554006
996.600000	-58.173863
996.820000	-17.031616
997.040000	24.772586
997.260000	-47.060184
997.480000	10.618295
997.700000	-75.132866
997.921000	-61.763588
998.141000	23.364551
998.361000	3.795214
998.581000	-50.266750
998.801000	-87.994210
999.021000	-68.597107
999.241000	-28.561721
999.462000	2.482377
999.682000	-54.159933
999.902000	-35.269476
1000.122000	-59.753987
1000.342000	-141.929137
1000.562000	-71.308861
1000.782000	-96.847257
1001.003000	-871.755799
