Wavelength	Irradiance
(nm)	(mW/cm2/nm)

294.396000	0.000000
294.577000	0.000000
294.757000	0.000000
294.938000	0.000000
295.118000	0.000000
295.299000	0.000000
295.479000	-0.000000
295.660000	-0.000000
295.840000	-0.000000
296.021000	0.000000
296.202000	-0.000000
296.382000	-0.000000
296.563000	-0.000000
296.743000	-0.000000
296.924000	0.000000
297.104000	-0.000000
297.285000	-0.000000
297.465000	-0.000000
297.646000	-0.000000
297.826000	0.000000
298.007000	0.000000
298.187000	0.000000
298.368000	-0.000000
298.548000	0.000000
298.729000	0.000000
298.909000	-0.000000
299.090000	-0.000000
299.270000	-0.000000
299.451000	-0.000000
299.631000	-0.000000
299.812000	0.000000
299.992000	0.000000
300.173000	0.000000
300.353000	-0.000000
300.534000	0.000000
300.714000	0.000000
300.895000	0.000000
301.075000	-0.000000
301.256000	0.000000
301.436000	0.000000
301.617000	0.000000
301.797000	-0.000000
301.978000	0.000000
302.159000	0.000000
302.339000	0.000000
302.520000	0.000000
302.700000	-0.000000
302.881000	0.000000
303.061000	0.000000
303.242000	0.000000
303.422000	0.000000
303.603000	0.000000
303.783000	-0.000000
303.964000	0.000000
304.144000	0.000000
304.325000	-0.000000
304.505000	0.000000
304.686000	0.000000
304.866000	0.000000
305.047000	0.000000
305.227000	-0.000000
305.408000	-0.000000
305.588000	-0.000000
305.769000	-0.000000
305.949000	-0.000000
306.130000	-0.000000
306.310000	-0.000000
306.491000	-0.000000
306.671000	0.000000
306.852000	-0.000000
307.032000	-0.000000
307.213000	0.000000
307.393000	-0.000000
307.574000	0.000000
307.755000	0.000000
307.935000	0.000000
308.116000	0.000000
308.296000	-0.000000
308.477000	0.000000
308.657000	0.000000
308.838000	0.000000
309.018000	0.000000
309.199000	-0.000000
309.379000	-0.000000
309.560000	0.000000
309.740000	-0.000000
309.921000	0.000000
310.101000	0.000000
310.282000	0.000000
310.462000	-0.000000
310.643000	-0.000000
310.823000	-0.000000
311.004000	-0.000000
311.184000	-0.000000
311.365000	0.000000
311.545000	0.000000
311.726000	0.000000
311.906000	0.000000
312.087000	0.000000
312.267000	-0.000000
312.448000	-0.000000
312.628000	-0.000000
312.809000	-0.000000
312.989000	-0.000000
313.170000	-0.000000
313.344000	-0.000000
313.518000	-0.000000
313.691000	-0.000000
313.865000	-0.000000
314.039000	-0.000000
314.213000	-0.000000
314.387000	-0.000000
314.560000	-0.000000
314.734000	-0.000000
314.908000	-0.000000
315.082000	-0.000000
315.255000	0.000000
315.429000	0.000000
315.603000	0.000000
315.777000	-0.000000
315.951000	0.000000
316.124000	-0.000000
316.298000	-0.000000
316.472000	-0.000000
316.646000	-0.000000
316.820000	-0.000000
316.993000	0.000000
317.167000	-0.000000
317.341000	-0.000000
317.515000	0.000000
317.688000	0.000000
317.862000	-0.000000
318.036000	-0.000000
318.210000	-0.000000
318.384000	-0.000000
318.557000	-0.000000
318.731000	-0.000000
318.905000	0.000000
319.079000	0.000000
319.253000	0.000000
319.426000	0.000000
319.600000	0.000000
319.774000	-0.000000
319.948000	-0.000000
320.122000	0.000000
320.295000	0.000000
320.469000	-0.000000
320.643000	-0.000000
320.817000	-0.000000
320.990000	-0.000000
321.164000	-0.000000
321.338000	-0.000000
321.512000	-0.000000
321.686000	-0.000000
321.859000	-0.000000
322.033000	0.000000
322.207000	0.000000
322.381000	0.000000
322.555000	0.000000
322.728000	0.000000
322.902000	-0.000000
323.076000	-0.000000
323.250000	-0.000000
323.423000	-0.000000
323.597000	-0.000000
323.771000	-0.000000
323.945000	-0.000000
324.119000	-0.000000
324.292000	0.000000
324.466000	0.000000
324.640000	0.000000
324.814000	0.000000
324.988000	-0.000000
325.161000	-0.000000
325.335000	-0.000000
325.509000	-0.000000
325.683000	0.000000
325.856000	-0.000000
326.030000	-0.000000
326.204000	-0.000000
326.378000	0.000000
326.552000	-0.000000
326.725000	-0.000000
326.899000	-0.000000
327.073000	-0.000000
327.247000	-0.000000
327.421000	0.000000
327.594000	0.000000
327.768000	-0.000000
327.942000	0.000000
328.116000	0.000000
328.289000	0.000000
328.463000	0.000000
328.637000	0.000000
328.811000	-0.000000
328.985000	0.000000
329.158000	0.000000
329.332000	-0.000000
329.506000	0.000000
329.680000	0.000000
329.854000	0.000000
330.027000	0.000000
330.201000	0.000000
330.375000	0.000000
330.549000	0.000000
330.723000	0.000000
330.896000	-0.000000
331.070000	-0.000000
331.244000	-0.000000
331.418000	-0.000000
331.591000	0.000000
331.765000	-0.000000
331.939000	-0.000000
332.113000	0.000000
332.287000	0.000000
332.460000	0.000000
332.634000	0.000000
332.808000	-0.000000
332.982000	-0.000000
333.156000	-0.000000
333.329000	0.000000
333.503000	-0.000000
333.677000	-0.000000
333.851000	-0.000000
334.024000	-0.000000
334.198000	-0.000000
334.372000	-0.000000
334.546000	-0.000000
334.720000	-0.000000
334.893000	-0.000000
335.067000	0.000000
335.241000	-0.000000
335.415000	-0.000000
335.589000	-0.000000
335.762000	-0.000000
335.936000	-0.000000
336.110000	-0.000000
336.284000	-0.000000
336.458000	0.000000
336.631000	0.000000
336.805000	-0.000000
336.979000	-0.000000
337.153000	-0.000000
337.326000	-0.000000
337.500000	0.000000
337.674000	0.000000
337.848000	-0.000000
338.022000	0.000000
338.195000	-0.000000
338.369000	-0.000000
338.543000	-0.000000
338.717000	0.000000
338.891000	0.000000
339.064000	0.000000
339.238000	-0.000000
339.412000	-0.000000
339.586000	-0.000000
339.759000	-0.000000
339.933000	-0.000000
340.107000	0.000000
340.281000	0.000000
340.455000	-0.000000
340.628000	-0.000000
340.802000	-0.000000
340.976000	0.000000
341.150000	-0.000000
341.324000	-0.000000
341.497000	-0.000000
341.671000	-0.000000
341.845000	-0.000000
342.019000	-0.000000
342.192000	-0.000000
342.366000	-0.000000
342.540000	-0.000000
342.714000	-0.000000
342.888000	-0.000000
343.061000	0.000000
343.235000	0.000000
343.409000	-0.000000
343.583000	-0.000000
343.757000	-0.000000
343.930000	-0.000000
344.104000	-0.000000
344.278000	0.000000
344.452000	0.000000
344.626000	-0.000000
344.799000	-0.000000
344.973000	-0.000000
345.147000	-0.000000
345.321000	-0.000000
345.494000	-0.000000
345.668000	0.000000
345.842000	0.000000
346.016000	-0.000000
346.190000	0.000000
346.363000	0.000000
346.537000	0.000000
346.711000	0.000000
346.885000	-0.000000
347.059000	-0.000000
347.232000	0.000000
347.406000	0.000000
347.580000	-0.000000
347.754000	-0.000000
347.927000	0.000000
348.101000	0.000000
348.275000	-0.000000
348.449000	-0.000000
348.623000	-0.000000
348.796000	0.000000
348.970000	0.000000
349.144000	0.000000
349.318000	-0.000000
349.492000	-0.000000
349.665000	-0.000000
349.839000	-0.000000
350.013000	-0.000000
350.187000	-0.000000
350.361000	-0.000000
350.534000	-0.000000
350.708000	-0.000000
350.882000	0.000000
351.056000	0.000000
351.229000	0.000000
351.403000	-0.000000
351.577000	-0.000000
351.751000	-0.000000
351.925000	-0.000000
352.098000	-0.000000
352.272000	0.000000
352.446000	-0.000000
352.620000	-0.000000
352.794000	-0.000000
352.967000	-0.000000
353.141000	0.000000
353.315000	0.000000
353.489000	-0.000000
353.662000	-0.000000
353.836000	-0.000000
354.010000	-0.000000
354.184000	0.000000
354.358000	-0.000000
354.531000	-0.000000
354.705000	-0.000000
354.879000	-0.000000
355.053000	-0.000000
355.227000	0.000000
355.400000	-0.000000
355.574000	0.000000
355.748000	0.000000
355.922000	-0.000000
356.095000	-0.000000
356.269000	0.000000
356.443000	-0.000000
356.617000	-0.000000
356.791000	-0.000000
356.964000	-0.000000
357.138000	-0.000000
357.312000	-0.000000
357.486000	-0.000000
357.660000	0.000000
357.833000	0.000000
358.007000	-0.000000
358.181000	-0.000000
358.355000	-0.000000
358.529000	-0.000000
358.702000	-0.000000
358.876000	-0.000000
359.050000	-0.000000
359.224000	-0.000000
359.397000	0.000000
359.571000	-0.000000
359.745000	-0.000000
359.919000	0.000000
360.093000	0.103824
360.266000	0.175982
360.440000	0.242230
360.614000	0.257502
360.788000	0.124654
360.962000	-0.102671
361.135000	0.057597
361.309000	-0.076450
361.483000	-0.231551
361.657000	-0.199112
361.830000	-0.108249
362.004000	0.066815
362.178000	-0.240315
362.352000	-0.158802
362.526000	0.000707
362.699000	-0.034628
362.873000	-0.382312
363.047000	-0.318303
363.221000	-0.245364
363.395000	-0.099332
363.568000	-0.153745
363.742000	-0.150951
363.916000	-0.106435
364.090000	-0.163182
364.263000	-0.120054
364.437000	-0.253829
364.611000	0.060825
364.785000	0.038937
364.959000	-0.163336
365.132000	-0.161952
365.306000	-0.177507
365.480000	-0.055655
365.656000	-0.179426
365.831000	-0.170664
366.007000	-0.110159
366.183000	-0.045910
366.358000	-0.200743
366.534000	-0.100145
366.710000	-0.235101
366.886000	-0.136370
367.061000	0.008580
367.237000	0.144025
367.413000	0.078333
367.588000	-0.149796
367.764000	-0.124991
367.940000	-0.218141
368.115000	-0.183853
368.291000	-0.207730
368.467000	-0.108255
368.643000	0.232614
368.818000	-0.102456
368.994000	-0.233544
369.170000	-0.111350
369.345000	-0.164254
369.521000	-0.231137
369.697000	-0.121718
369.872000	-0.144381
370.048000	-0.209856
370.224000	-0.111871
370.399000	-0.359749
370.575000	-0.283373
370.751000	-0.335174
370.927000	-0.374299
371.102000	-0.344459
371.278000	-0.322289
371.454000	-0.224536
371.629000	0.094255
371.805000	0.110399
371.981000	0.226704
372.156000	0.245509
372.332000	0.112573
372.508000	0.025183
372.683000	0.012921
372.859000	-0.149644
373.035000	-0.027949
373.211000	0.425611
373.386000	0.107797
373.562000	-0.413200
373.738000	-0.422731
373.913000	-0.472270
374.089000	-0.330427
374.265000	0.037776
374.440000	0.083679
374.616000	0.157902
374.792000	-0.135921
374.968000	0.214244
375.143000	0.045404
375.319000	-0.159390
375.495000	-0.238269
375.670000	-0.116339
375.846000	-0.031777
376.022000	-0.172075
376.197000	-0.101252
376.373000	-0.300308
376.549000	-0.267269
376.724000	-0.353338
376.900000	-0.246805
377.076000	-0.079340
377.252000	0.134341
377.427000	0.253777
377.603000	-0.091235
377.779000	-0.039229
377.954000	-0.231798
378.130000	-0.070004
378.306000	-0.023032
378.481000	-0.042710
378.657000	-0.105445
378.833000	-0.187753
379.009000	-0.023102
379.184000	0.052339
379.360000	-0.003144
379.536000	0.044385
379.711000	-0.087828
379.887000	-0.245321
380.063000	-0.215225
380.238000	-0.248380
380.414000	0.016517
380.590000	-0.197739
380.765000	-0.177335
380.941000	0.000783
381.117000	0.055227
381.293000	-0.030265
381.468000	-0.198751
381.644000	-0.131622
381.820000	-0.053786
381.995000	0.114923
382.171000	0.328998
382.347000	0.261459
382.522000	-0.152382
382.698000	0.160993
382.874000	0.215376
383.050000	-0.219161
383.225000	0.216456
383.401000	0.339126
383.577000	0.024565
383.752000	-0.092480
383.928000	-0.022486
384.104000	0.000795
384.279000	-0.046932
384.455000	0.008503
384.631000	-0.095990
384.806000	-0.342199
384.982000	-0.018601
385.158000	-0.046121
385.334000	0.008467
385.509000	-0.084253
385.685000	-0.340748
385.861000	-0.120923
386.036000	-0.247031
386.212000	-0.437533
386.388000	-0.183520
386.563000	-0.121859
386.739000	-0.216089
386.915000	-0.448188
387.090000	-0.190193
387.266000	0.000777
387.442000	0.210307
387.618000	0.158601
387.793000	-0.162294
387.969000	-0.367884
388.145000	-0.332004
388.320000	-0.246733
388.496000	-0.170932
388.672000	-0.382316
388.847000	0.008428
389.023000	-0.003085
389.199000	-0.309288
389.375000	-0.087108
389.550000	-0.188819
389.726000	-0.063860
389.902000	-0.267542
390.077000	-0.021799
390.253000	-0.014529
390.429000	-0.083838
390.604000	0.027498
390.780000	-0.052442
390.956000	-0.134994
391.131000	-0.176136
391.307000	0.117506
391.483000	-0.070778
391.659000	-0.210764
391.834000	0.064688
392.010000	-0.111923
392.186000	-0.228593
392.361000	-0.116050
392.537000	-0.178371
392.713000	0.319304
392.888000	0.412523
393.064000	0.056590
393.240000	-0.092098
393.416000	-0.165347
393.591000	-0.255760
393.767000	-0.316240
393.943000	-0.245987
394.118000	0.095944
394.294000	0.322774
394.470000	0.216089
394.645000	0.211765
394.821000	0.410616
394.997000	0.088012
395.172000	-0.013747
395.348000	-0.155142
395.524000	-0.322089
395.700000	-0.210929
395.875000	0.007900
396.051000	-0.049493
396.227000	-0.143805
396.402000	-0.155465
396.578000	-0.071737
396.754000	-0.186658
396.929000	-0.160712
397.105000	0.140413
397.281000	0.097399
397.457000	-0.081405
397.632000	-0.048752
397.808000	-0.308599
397.984000	-0.469952
398.159000	-0.335046
398.335000	-0.134720
398.511000	0.239061
398.686000	0.068232
398.862000	-0.129894
399.038000	-0.340797
399.213000	-0.065876
399.389000	-0.267548
399.565000	0.007743
399.741000	0.260873
399.916000	0.153350
400.092000	0.424598
400.268000	0.035734
400.443000	-0.091464
400.619000	0.301481
400.795000	0.096602
400.970000	-0.090417
401.146000	-0.101325
401.322000	0.195520
401.497000	0.591791
401.673000	0.281766
401.849000	-0.056025
402.025000	0.134879
402.200000	0.004226
402.376000	-0.090808
402.552000	0.396544
402.727000	0.211767
402.903000	-0.220448
403.079000	-0.090627
403.254000	0.257350
403.430000	0.157849
403.606000	0.011194
403.782000	0.004192
403.957000	-0.149952
404.133000	-0.276793
404.309000	-0.108155
404.484000	0.112668
404.660000	0.109473
404.841000	-0.030896
405.023000	0.164809
405.204000	0.147786
405.385000	-0.104839
405.566000	-0.142892
405.748000	0.036096
405.929000	0.267444
406.110000	0.222170
406.292000	0.091182
406.473000	0.084430
406.654000	-0.115343
406.835000	0.095324
407.017000	0.046085
407.198000	0.087000
407.379000	0.134960
407.560000	0.042134
407.742000	0.038981
407.923000	0.116191
408.104000	-0.072449
408.286000	0.063264
408.467000	0.101249
408.648000	-0.114084
408.829000	-0.068625
409.011000	0.087450
409.192000	-0.159557
409.373000	0.066799
409.555000	0.258194
409.736000	0.211530
409.917000	0.083955
410.098000	0.107523
410.280000	0.247018
410.461000	0.290977
410.642000	0.308623
410.823000	0.493205
411.005000	0.411642
411.186000	0.154897
411.367000	0.120732
411.549000	0.124072
411.730000	0.353609
411.911000	0.544570
412.092000	0.334908
412.274000	0.240996
412.455000	0.305938
412.636000	0.401274
412.818000	0.203559
412.999000	0.151805
413.180000	0.267601
413.361000	0.244857
413.543000	0.253669
413.724000	0.165539
413.905000	0.236204
414.087000	0.233326
414.268000	0.140729
414.449000	0.231200
414.630000	0.258931
414.812000	0.030795
414.993000	0.402201
415.174000	0.641437
415.355000	0.555203
415.537000	0.296660
415.718000	0.526681
415.899000	0.481961
416.081000	0.347753
416.262000	0.627440
416.443000	0.533731
416.624000	0.502950
416.806000	0.665092
416.987000	0.846753
417.168000	0.723413
417.350000	0.509752
417.531000	0.516482
417.712000	0.601317
417.893000	0.862157
418.075000	0.959712
418.256000	0.731000
418.437000	0.783048
418.618000	0.940057
418.800000	0.990689
418.981000	0.904756
419.162000	1.040598
419.344000	1.190020
419.525000	1.101960
419.706000	0.972704
419.887000	1.146544
420.069000	1.385982
420.250000	1.275077
420.431000	1.164955
420.613000	1.124854
420.794000	0.980071
420.975000	1.367351
421.156000	1.198417
421.338000	1.190973
421.519000	1.245707
421.700000	1.187774
421.882000	1.275122
422.063000	1.517855
422.244000	1.928606
422.425000	1.690419
422.607000	1.391429
422.788000	1.482464
422.969000	1.391534
423.150000	1.425456
423.332000	1.482557
423.513000	1.742600
423.694000	1.755002
423.876000	1.791788
424.057000	1.830940
424.238000	1.984138
424.419000	2.100788
424.601000	1.986408
424.782000	1.977886
424.963000	2.148832
425.145000	2.213007
425.326000	2.158353
425.507000	2.180937
425.688000	2.156417
425.870000	2.119513
426.051000	2.105014
426.232000	2.185522
426.413000	2.208116
426.595000	2.264370
426.776000	2.331110
426.957000	2.399517
427.139000	2.515261
427.320000	2.694980
427.501000	2.858466
427.682000	2.821823
427.864000	2.875259
428.045000	3.101171
428.226000	3.076427
428.408000	2.829362
428.589000	2.985884
428.770000	3.066425
428.951000	3.019253
429.133000	2.939437
429.314000	3.214956
429.495000	3.277966
429.677000	3.315297
429.858000	3.415439
430.039000	3.551565
430.220000	3.710105
430.402000	3.836648
430.583000	3.610547
430.764000	3.775787
430.945000	4.046665
431.127000	4.145415
431.308000	4.091459
431.489000	4.328100
431.671000	4.432417
431.852000	4.460109
432.033000	4.502014
432.214000	4.690317
432.396000	4.728674
432.577000	4.611985
432.758000	4.646526
432.940000	4.768888
433.121000	4.976875
433.302000	5.093500
433.483000	5.383883
433.665000	5.551341
433.846000	5.629333
434.027000	5.499759
434.208000	5.508253
434.390000	5.686154
434.571000	6.139434
434.752000	6.673119
434.934000	6.602344
435.115000	6.550191
435.296000	6.897449
435.477000	6.864767
435.659000	6.601742
435.840000	6.838010
436.026000	7.048602
436.211000	7.031651
436.397000	6.879447
436.582000	7.158470
436.768000	7.470850
436.953000	7.561569
437.139000	7.715874
437.325000	8.122222
437.510000	8.218204
437.696000	8.514329
437.881000	8.703422
438.067000	8.509308
438.252000	8.792390
438.438000	8.918424
438.624000	9.075135
438.809000	9.391337
438.995000	9.685357
439.180000	9.816443
439.366000	10.059320
439.551000	10.331358
439.737000	10.562678
439.923000	10.733975
440.108000	10.903850
440.294000	11.337952
440.479000	11.624980
440.665000	11.798426
440.850000	11.989227
441.036000	12.337695
441.222000	12.598071
441.407000	12.858938
441.593000	13.068296
441.778000	13.534484
441.964000	13.950817
442.149000	13.929652
442.335000	14.200552
442.521000	14.583137
442.706000	15.213849
442.892000	15.424832
443.077000	15.764263
443.263000	16.157247
443.448000	16.404038
443.634000	16.755362
443.820000	17.312478
444.005000	17.479813
444.191000	17.678080
444.376000	18.044469
444.562000	18.723674
444.747000	19.061555
444.933000	19.432435
445.119000	19.579738
445.304000	19.868684
445.490000	20.412534
445.675000	20.661061
445.861000	21.081634
446.046000	21.481719
446.232000	21.922863
446.418000	22.225935
446.603000	22.601268
446.789000	23.035342
446.974000	23.396520
447.160000	23.396173
447.345000	23.568004
447.531000	23.833395
447.717000	24.613455
447.902000	25.108894
448.088000	25.315999
448.273000	25.294090
448.459000	25.435982
448.644000	25.676675
448.830000	25.936573
449.016000	25.987151
449.201000	26.224844
449.387000	26.553323
449.572000	26.681597
449.758000	26.550653
449.943000	26.680078
450.129000	26.670352
450.315000	26.647761
450.500000	26.789550
450.686000	26.982400
450.871000	26.875520
451.057000	26.760471
451.243000	26.718550
451.428000	26.663361
451.614000	26.539606
451.799000	26.463202
451.985000	26.539689
452.170000	26.533662
452.356000	26.314022
452.542000	26.020857
452.727000	25.892382
452.913000	25.503775
453.098000	25.556148
453.284000	25.576603
453.469000	25.089998
453.655000	25.076717
453.841000	24.683835
454.026000	24.062903
454.212000	23.702882
454.397000	23.522373
454.583000	23.350981
454.768000	22.887591
454.954000	22.670911
455.140000	22.298867
455.325000	21.806937
455.511000	21.640983
455.696000	21.365706
455.882000	21.225619
456.067000	21.238485
456.253000	20.726887
456.439000	20.213599
456.624000	19.957748
456.810000	19.732911
456.995000	19.556965
457.181000	19.063518
457.366000	19.044241
457.552000	18.733847
457.738000	18.544963
457.923000	18.305165
458.109000	18.379485
458.294000	18.101438
458.480000	17.850427
458.665000	17.623674
458.851000	17.352591
459.037000	16.842410
459.222000	16.750902
459.408000	16.685072
459.593000	16.451599
459.779000	16.425209
459.964000	16.388304
460.150000	16.470128
460.336000	16.326899
460.521000	15.850291
460.707000	15.599350
460.892000	15.371042
461.078000	15.454041
461.263000	15.488911
461.449000	15.280670
461.635000	15.183485
461.820000	15.142696
462.006000	15.031587
462.191000	14.855054
462.377000	14.559204
462.562000	15.018706
462.748000	15.129935
462.934000	14.549776
463.119000	14.254313
463.305000	14.431163
463.490000	14.218812
463.676000	14.206572
463.861000	14.063888
464.047000	13.835649
464.233000	13.942500
464.418000	13.826110
464.604000	13.581037
464.789000	13.697245
464.975000	13.580632
465.160000	13.401480
465.346000	13.368652
465.532000	13.211198
465.717000	13.076221
465.903000	13.256915
466.088000	13.064406
466.274000	12.792558
466.459000	12.641950
466.645000	12.885320
466.831000	12.629880
467.016000	12.581777
467.202000	12.508137
467.387000	12.225999
467.573000	11.908423
467.758000	12.159908
467.944000	11.879940
468.130000	11.610786
468.315000	11.607107
468.501000	11.617779
468.686000	11.465959
468.872000	11.477291
469.057000	11.429743
469.243000	11.237857
469.429000	10.974729
469.614000	10.649888
469.800000	10.561380
469.985000	10.651489
470.171000	10.638676
470.356000	10.444511
470.542000	10.331482
470.728000	10.172837
470.913000	10.012031
471.099000	10.046808
471.284000	9.965532
471.470000	9.841817
471.655000	9.747057
471.841000	9.548856
472.027000	9.370549
472.212000	9.483841
472.398000	9.581325
472.583000	9.362785
472.769000	9.321123
472.954000	9.181121
473.140000	8.987480
473.326000	8.861647
473.511000	9.005255
473.697000	8.954571
473.882000	8.794582
474.068000	8.641189
474.253000	8.518211
474.439000	8.588313
474.625000	8.592253
474.810000	8.463277
474.996000	8.369914
475.181000	8.302275
475.367000	8.494596
475.552000	8.713016
475.738000	8.267070
475.924000	8.256190
476.109000	8.228322
476.295000	8.041134
476.480000	8.098585
476.666000	8.078926
476.851000	8.032922
477.037000	8.144003
477.223000	8.008829
477.408000	7.843946
477.594000	7.816909
477.779000	7.963316
477.965000	7.956263
478.151000	7.898037
478.336000	8.030911
478.522000	7.923299
478.707000	7.824223
478.893000	7.926559
479.078000	7.820312
479.264000	7.906241
479.450000	7.926699
479.635000	8.091031
479.821000	7.952076
480.006000	7.955912
480.192000	8.098800
480.377000	8.096654
480.563000	8.026993
480.749000	7.802439
480.934000	7.843446
481.120000	7.984347
481.305000	8.105920
481.491000	8.161119
481.676000	8.181973
481.862000	8.205823
482.048000	7.949692
482.233000	8.075594
482.419000	8.143176
482.604000	7.973787
482.790000	7.973968
482.975000	8.040651
483.161000	8.233381
483.347000	8.237399
483.532000	8.209530
483.718000	8.046617
483.903000	8.090058
484.089000	8.129717
484.274000	8.055365
484.460000	8.313273
484.646000	8.284362
484.831000	8.236021
485.017000	8.357847
485.202000	8.366542
485.388000	8.572117
485.573000	8.579731
485.759000	8.454088
485.945000	8.539364
486.130000	8.395432
486.316000	8.467429
486.501000	8.584632
486.687000	8.379318
486.872000	8.394254
487.058000	8.615397
487.244000	8.598671
487.429000	8.468639
487.615000	8.695067
487.800000	8.740051
487.986000	8.626444
488.171000	8.870904
488.357000	8.843340
488.543000	8.782056
488.728000	8.869748
488.914000	8.865804
489.099000	8.778042
489.285000	8.832333
489.470000	9.037393
489.656000	8.957084
489.842000	8.937172
490.027000	9.003765
490.213000	9.018792
490.398000	8.775971
490.584000	9.093823
490.769000	9.134651
490.955000	9.253242
491.141000	9.316600
491.326000	9.200520
491.512000	9.429900
491.697000	9.305922
491.883000	9.219270
492.068000	9.237070
492.254000	9.305996
492.440000	9.374346
492.625000	9.341730
492.811000	9.453277
492.996000	9.677122
493.182000	9.632121
493.367000	9.451221
493.553000	9.430144
493.739000	9.633516
493.924000	9.715555
494.110000	9.849974
494.295000	9.754168
494.481000	9.853340
494.666000	9.989972
494.852000	10.124625
495.038000	9.932410
495.223000	9.994293
495.409000	10.052954
495.594000	9.987327
495.780000	10.069170
495.965000	10.088727
496.151000	10.285173
496.337000	10.287286
496.522000	10.154166
496.708000	10.385343
496.893000	10.576711
497.079000	10.314184
497.264000	10.364402
497.450000	10.466345
497.636000	10.576204
497.821000	10.516118
498.007000	10.767799
498.192000	10.882597
498.378000	10.772551
498.563000	10.678020
498.749000	10.857053
498.935000	10.980559
499.120000	11.009731
499.306000	10.832153
499.491000	10.765695
499.677000	10.924950
499.862000	11.092266
500.048000	11.216858
500.234000	11.127958
500.419000	11.194929
500.605000	11.307660
500.790000	11.141129
500.976000	11.130999
501.161000	11.106981
501.347000	11.314443
501.533000	11.489996
501.718000	11.427151
501.904000	11.327329
502.089000	11.508385
502.275000	11.649241
502.460000	11.465666
502.646000	11.504569
502.832000	11.625222
503.017000	11.615928
503.203000	11.500936
503.388000	11.505050
503.574000	11.725689
503.759000	11.797509
503.945000	11.939679
504.131000	11.871567
504.316000	11.812739
504.502000	11.742145
504.687000	11.919367
504.873000	11.909554
505.058000	11.905707
505.244000	11.789881
505.430000	11.793241
505.615000	12.023018
505.801000	12.170089
505.986000	11.946637
506.172000	12.022186
506.358000	12.037786
506.543000	12.146856
506.729000	12.312298
506.914000	12.308607
507.100000	12.424270
507.285000	12.250251
507.471000	12.184356
507.657000	12.448862
507.842000	12.355830
508.028000	12.219409
508.213000	12.326049
508.399000	12.418342
508.584000	12.590553
508.770000	12.439714
508.956000	12.406568
509.141000	12.436019
509.327000	12.695573
509.512000	12.593042
509.698000	12.564541
509.883000	12.704637
510.069000	12.681429
510.255000	12.703826
510.440000	12.750691
510.626000	12.753679
510.811000	12.714446
510.997000	12.880418
511.182000	13.164812
511.368000	12.963085
511.554000	12.677667
511.739000	12.717465
511.925000	12.924809
512.110000	12.955843
512.296000	13.125391
512.481000	13.159886
512.667000	13.111579
512.853000	12.832365
513.038000	13.026235
513.224000	12.942662
513.409000	12.931686
513.595000	13.215559
513.780000	13.076182
513.966000	13.013345
514.152000	13.082343
514.337000	12.972065
514.523000	13.052694
514.708000	13.215473
514.894000	13.256768
515.079000	13.099088
515.265000	13.141704
515.451000	13.171331
515.636000	13.098864
515.822000	13.327974
516.007000	13.172880
516.193000	13.307303
516.378000	13.407537
516.564000	13.305867
516.750000	13.407169
516.935000	13.505860
517.121000	13.563729
517.306000	13.600308
517.492000	13.613493
517.677000	13.416501
517.863000	13.336660
518.049000	13.546705
518.234000	13.483255
518.420000	13.575155
518.605000	13.737645
518.791000	13.834928
518.976000	13.707482
519.162000	13.585280
519.348000	13.760470
519.533000	13.672626
519.719000	13.899949
519.904000	13.842802
520.090000	13.654767
520.275000	13.758495
520.461000	13.824641
520.647000	13.705392
520.832000	13.645040
521.018000	13.689821
521.203000	13.548131
521.389000	13.349501
521.574000	13.600650
521.760000	13.783605
521.946000	13.715976
522.131000	13.635280
522.317000	13.711523
522.502000	13.705646
522.688000	13.765208
522.873000	13.673558
523.059000	13.768482
523.245000	13.869997
523.430000	13.758459
523.616000	13.788711
523.801000	13.636210
523.987000	13.763325
524.172000	13.937778
524.358000	14.036621
524.544000	13.884317
524.729000	13.832878
524.915000	13.983127
525.100000	13.972749
525.286000	13.929909
525.471000	13.964344
525.657000	14.130777
525.843000	13.941190
526.028000	14.017346
526.214000	13.894219
526.399000	13.860493
526.585000	13.902709
526.770000	13.772999
526.956000	13.866662
527.142000	13.817261
527.327000	14.035859
527.513000	14.033435
527.698000	14.086294
527.884000	14.000850
528.069000	13.895762
528.255000	14.112769
528.441000	14.099778
528.626000	14.013328
528.812000	14.199033
528.997000	14.167788
529.183000	14.056818
529.368000	14.081946
529.554000	14.179602
529.740000	14.161548
529.925000	14.063666
530.111000	14.238347
530.296000	14.249274
530.482000	14.340070
530.667000	14.267236
530.853000	14.353600
531.039000	14.178387
531.224000	14.313540
531.410000	14.383477
531.595000	14.360982
531.781000	14.337515
531.967000	14.172447
532.152000	14.400489
532.338000	14.302042
532.523000	14.181077
532.709000	14.108298
532.894000	14.314032
533.080000	14.342521
533.266000	14.177366
533.451000	14.222166
533.637000	14.281611
533.822000	14.386249
534.008000	14.238409
534.193000	14.347130
534.379000	14.548290
534.565000	14.274329
534.750000	14.114502
534.936000	14.481643
535.121000	14.294143
535.307000	14.356900
535.492000	14.396340
535.678000	14.156919
535.864000	14.441348
536.049000	14.773454
536.235000	14.510356
536.420000	14.418300
536.606000	14.442872
536.791000	14.405186
536.977000	14.334391
537.163000	14.536842
537.348000	14.602042
537.534000	14.659852
537.719000	14.533136
537.905000	14.405650
538.090000	14.615706
538.276000	14.673089
538.462000	14.581269
538.647000	14.652008
538.833000	14.702820
539.018000	14.762722
539.204000	14.755237
539.389000	14.600787
539.575000	14.844938
539.761000	14.775585
539.946000	14.445940
540.132000	14.628769
540.317000	14.483425
540.503000	14.705486
540.688000	14.883450
540.874000	15.124468
541.060000	15.128625
541.245000	15.101340
541.431000	14.930521
541.616000	14.878673
541.802000	14.724351
541.987000	14.937091
542.173000	15.087577
542.359000	14.852791
542.544000	14.912139
542.730000	14.855866
542.915000	14.872933
543.101000	15.144949
543.286000	14.987925
543.472000	14.872818
543.658000	14.978516
543.843000	15.021759
544.029000	15.130456
544.214000	15.067054
544.400000	14.742695
544.585000	14.947708
544.771000	15.150594
544.957000	15.292598
545.142000	15.375962
545.328000	15.468007
545.513000	15.500085
545.699000	15.544242
545.884000	15.298309
546.070000	15.276073
546.261000	15.282842
546.451000	15.147091
546.642000	14.976689
546.833000	14.982830
547.023000	14.825209
547.214000	14.911534
547.405000	15.211820
547.595000	15.505187
547.786000	15.309971
547.977000	15.122626
548.167000	15.012420
548.358000	14.958528
548.549000	15.371966
548.740000	15.221223
548.930000	14.904869
549.121000	15.078768
549.312000	15.008271
549.502000	14.990418
549.693000	15.110084
549.884000	15.199142
550.074000	15.330680
550.265000	15.108735
550.456000	15.203394
550.646000	15.304333
550.837000	15.398495
551.028000	15.254897
551.218000	15.175657
551.409000	15.190428
551.600000	15.364999
551.790000	15.453224
551.981000	15.107263
552.172000	15.291064
552.362000	15.588664
552.553000	15.594909
552.744000	15.456067
552.934000	15.462466
553.125000	15.406502
553.316000	15.311783
553.506000	15.702963
553.697000	15.554655
553.888000	15.450390
554.079000	15.725049
554.269000	15.660247
554.460000	15.222029
554.651000	15.135723
554.841000	15.170310
555.032000	15.362780
555.223000	15.437274
555.413000	15.674772
555.604000	15.698906
555.795000	15.708271
555.985000	15.772454
556.176000	15.541954
556.367000	15.361612
556.557000	15.547777
556.748000	15.610111
556.939000	15.479472
557.129000	15.377672
557.320000	15.657180
557.511000	15.642151
557.701000	15.613884
557.892000	15.729869
558.083000	16.014494
558.273000	15.822205
558.464000	15.677560
558.655000	15.759843
558.845000	15.688738
559.036000	15.770704
559.227000	15.849633
559.418000	15.981730
559.608000	16.046367
559.799000	15.760643
559.990000	15.483032
560.180000	15.707982
560.371000	15.625861
560.562000	15.732573
560.752000	15.973011
560.943000	15.704736
561.134000	15.539244
561.324000	15.802054
561.515000	16.106492
561.706000	15.941593
561.896000	15.833251
562.087000	16.015252
562.278000	15.914390
562.468000	15.719733
562.659000	15.953153
562.850000	16.460452
563.040000	16.404438
563.231000	15.895295
563.422000	16.000177
563.612000	15.895471
563.803000	16.124754
563.994000	16.016148
564.185000	15.892239
564.375000	16.236870
564.566000	16.120118
564.757000	16.064168
564.947000	16.020761
565.138000	16.011481
565.329000	16.072483
565.519000	16.057266
565.710000	16.211670
565.901000	16.489113
566.091000	16.532241
566.282000	16.373614
566.473000	16.384803
566.663000	16.283394
566.854000	16.208557
567.045000	16.377873
567.235000	16.477179
567.426000	16.440468
567.617000	16.510287
567.807000	16.517395
567.998000	16.466823
568.189000	16.300104
568.379000	16.417657
568.570000	16.533223
568.761000	16.478191
568.951000	16.462090
569.142000	16.554930
569.333000	16.490651
569.524000	16.472503
569.714000	16.370364
569.905000	16.101142
570.096000	16.657294
570.286000	16.688435
570.477000	16.816533
570.668000	16.717478
570.858000	16.716621
571.049000	16.601485
571.240000	16.506861
571.430000	16.770610
571.621000	16.707797
571.812000	16.794451
572.002000	16.903420
572.193000	16.767189
572.384000	16.838991
572.574000	17.086402
572.765000	16.956660
572.956000	16.775745
573.146000	17.027511
573.337000	16.947726
573.528000	16.928041
573.718000	17.134926
573.909000	17.270124
574.100000	17.130562
574.290000	17.040354
574.481000	17.157175
574.672000	17.037886
574.863000	17.117960
575.053000	17.056633
575.244000	17.205273
575.435000	16.983784
575.625000	17.039545
575.816000	17.002510
576.007000	17.193670
576.197000	17.195221
576.388000	17.204569
576.579000	17.443450
576.769000	17.480253
576.960000	17.254620
577.155000	17.194313
577.350000	17.466758
577.545000	17.588707
577.740000	17.363718
577.935000	17.628835
578.130000	17.617414
578.326000	17.376040
578.521000	17.633670
578.716000	17.633382
578.911000	17.315533
579.106000	17.625191
579.301000	17.753540
579.496000	17.463795
579.691000	17.408936
579.886000	17.633430
580.081000	17.661453
580.276000	17.761742
580.471000	17.712886
580.666000	17.605931
580.861000	17.499120
581.057000	17.571497
581.252000	17.743405
581.447000	17.694541
581.642000	17.785250
581.837000	17.746098
582.032000	17.798849
582.227000	18.021422
582.422000	18.008941
582.617000	17.840256
582.812000	17.719591
583.007000	17.868445
583.202000	17.805730
583.397000	18.055751
583.592000	18.356596
583.788000	18.111591
583.983000	18.123973
584.178000	18.298978
584.373000	18.158629
584.568000	18.141192
584.763000	18.017703
584.958000	17.898856
585.153000	18.264663
585.348000	18.251756
585.543000	18.435172
585.738000	18.367986
585.933000	18.081533
586.128000	18.286797
586.324000	18.349364
586.519000	18.353687
586.714000	18.409505
586.909000	18.542636
587.104000	18.666633
587.299000	18.471425
587.494000	18.428640
587.689000	18.399892
587.884000	18.538314
588.079000	18.492149
588.274000	18.478673
588.469000	18.477257
588.664000	18.741992
588.859000	18.715545
589.055000	18.558534
589.250000	18.496002
589.445000	18.419953
589.640000	18.494467
589.835000	18.750996
590.030000	18.850126
590.225000	18.805751
590.420000	18.706047
590.615000	18.644889
590.810000	18.579156
591.005000	18.715308
591.200000	18.626818
591.395000	18.479664
591.591000	18.663987
591.786000	18.762319
591.981000	18.697499
592.176000	18.774779
592.371000	18.742852
592.566000	18.756375
592.761000	18.991670
592.956000	19.017765
593.151000	19.114855
593.346000	18.931639
593.541000	18.993761
593.736000	19.046152
593.931000	18.896606
594.126000	18.824303
594.322000	18.826615
594.517000	18.710317
594.712000	18.609093
594.907000	18.785903
595.102000	18.847250
595.297000	18.871621
595.492000	19.015869
595.687000	18.830168
595.882000	18.772185
596.077000	18.866998
596.272000	19.062911
596.467000	19.035289
596.662000	19.020048
596.857000	19.099062
597.053000	19.029117
597.248000	18.962096
597.443000	19.067795
597.638000	19.076516
597.833000	18.787076
598.028000	18.943271
598.223000	19.250810
598.418000	19.073361
598.613000	18.803005
598.808000	18.973321
599.003000	18.968824
599.198000	18.886559
599.393000	19.018285
599.589000	19.314354
599.784000	19.008105
599.979000	18.907485
600.174000	19.234627
600.369000	19.056668
600.564000	19.235618
600.759000	19.352680
600.954000	19.260331
601.149000	19.193075
601.344000	18.937736
601.539000	19.254055
601.734000	18.998291
601.929000	18.732607
602.124000	18.821176
602.320000	19.098298
602.515000	19.482384
602.710000	19.296695
602.905000	18.835835
603.100000	18.729285
603.295000	18.922839
603.490000	18.967459
603.685000	18.935569
603.880000	19.019358
604.075000	18.974577
604.270000	18.976255
604.465000	19.086969
604.660000	18.839091
604.856000	18.905396
605.051000	19.031764
605.246000	19.106067
605.441000	18.801837
605.636000	18.803999
605.831000	19.002831
606.026000	18.972395
606.221000	18.869391
606.416000	18.967758
606.611000	19.158063
606.806000	19.140577
607.001000	19.229840
607.196000	18.885278
607.391000	18.691294
607.587000	19.050650
607.782000	19.098599
607.977000	18.865360
608.172000	19.226860
608.367000	19.161478
608.562000	19.007415
608.757000	18.955681
608.952000	18.790774
609.147000	19.315537
609.342000	19.224540
609.537000	18.866997
609.732000	18.883747
609.927000	18.793994
610.122000	19.006438
610.318000	19.333469
610.513000	19.376336
610.708000	19.275827
610.903000	19.271080
611.098000	19.493587
611.293000	19.472527
611.488000	19.306945
611.683000	19.284615
611.878000	19.231047
612.073000	19.071174
612.268000	19.048920
612.463000	18.995381
612.658000	19.032166
612.854000	19.032230
613.049000	18.821274
613.244000	18.911953
613.439000	18.972518
613.634000	18.706070
613.829000	18.918444
614.024000	18.735748
614.219000	18.739718
614.414000	18.896039
614.609000	18.598913
614.804000	18.402596
614.999000	18.338891
615.194000	18.510868
615.389000	18.616731
615.585000	18.347625
615.780000	18.430421
615.975000	18.305006
616.170000	18.331733
616.365000	18.692293
616.560000	18.700101
616.755000	18.566619
616.950000	18.523676
617.145000	18.571332
617.340000	18.217781
617.535000	17.921113
617.730000	18.232069
617.925000	18.053273
618.120000	18.035028
618.316000	18.355227
618.511000	18.276267
618.706000	17.996749
618.901000	17.963402
619.096000	18.131937
619.291000	18.047102
619.486000	18.142349
619.681000	17.751488
619.876000	17.698865
620.071000	17.759438
620.266000	17.941492
620.461000	18.046705
620.656000	18.132615
620.852000	17.994915
621.047000	17.728365
621.242000	17.510682
621.437000	17.843077
621.632000	17.909368
621.827000	17.785012
622.022000	17.475238
622.217000	17.733939
622.412000	17.823710
622.607000	17.848078
622.802000	17.397943
622.997000	17.316741
623.192000	17.396818
623.387000	17.439529
623.583000	17.221716
623.778000	17.550866
623.973000	17.348499
624.168000	17.271649
624.363000	17.277160
624.558000	17.288800
624.753000	16.985698
624.948000	17.287053
625.143000	17.364304
625.338000	17.036971
625.533000	16.980972
625.728000	17.071447
625.923000	17.132978
626.119000	17.060568
626.314000	16.870605
626.509000	16.682735
626.704000	16.719497
626.899000	16.799528
627.094000	16.749891
627.289000	16.620097
627.484000	16.651897
627.679000	16.604408
627.874000	16.603802
628.069000	16.830468
628.264000	16.649781
628.459000	16.471423
628.654000	16.490064
628.850000	16.299842
629.045000	16.477347
629.240000	16.408476
629.435000	16.374102
629.630000	16.364084
629.825000	16.318941
630.020000	16.271180
630.215000	16.079331
630.410000	16.176767
630.605000	16.302557
630.800000	16.341335
630.995000	16.246407
631.190000	16.537519
631.385000	16.170497
631.581000	15.960191
631.776000	16.004409
631.971000	15.870396
632.166000	15.821914
632.361000	15.555768
632.556000	15.779066
632.751000	15.944551
632.946000	15.613882
633.141000	15.581003
633.336000	15.678268
633.531000	15.672764
633.726000	15.611195
633.921000	15.395538
634.117000	15.163309
634.312000	15.016271
634.507000	14.931937
634.702000	14.966442
634.897000	15.123600
635.092000	15.105144
635.287000	15.030423
635.482000	14.944737
635.677000	15.062952
635.872000	14.912092
636.067000	15.028832
636.262000	14.965445
636.457000	14.603020
636.652000	14.613058
636.848000	14.416889
637.043000	14.413454
637.238000	14.399703
637.433000	14.168865
637.628000	14.259461
637.823000	14.423304
638.018000	14.451093
638.213000	14.204399
638.408000	14.026131
638.603000	14.106195
638.798000	13.994668
638.993000	14.005526
639.188000	14.086545
639.383000	13.978093
639.579000	14.300124
639.774000	13.998355
639.969000	13.883549
640.164000	13.754057
640.359000	13.663986
640.554000	13.924074
640.749000	13.925974
640.944000	13.984629
641.139000	13.895334
641.334000	13.518422
641.529000	13.073525
641.724000	13.118116
641.919000	13.370238
642.115000	13.660097
642.310000	13.591583
642.505000	13.349944
642.700000	13.214583
642.895000	13.107099
643.090000	13.279362
643.285000	13.519053
643.480000	13.537529
643.675000	13.384481
643.870000	13.711282
644.065000	13.399193
644.260000	12.821551
644.455000	12.948936
644.650000	12.898073
644.846000	12.997939
645.041000	12.631682
645.236000	12.363128
645.431000	12.459983
645.626000	12.215347
645.821000	12.351982
646.016000	12.438148
646.211000	12.791713
646.406000	12.589762
646.601000	12.401715
646.796000	12.227612
646.991000	12.053884
647.186000	12.214694
647.381000	12.411310
647.577000	12.297254
647.772000	12.365120
647.967000	12.208427
648.162000	12.075042
648.357000	12.002784
648.552000	12.141290
648.747000	12.064021
648.942000	12.054861
649.137000	11.888520
649.332000	11.709164
649.527000	11.661868
649.722000	11.831480
649.917000	11.963901
650.113000	11.516828
650.308000	11.524671
650.503000	11.548215
650.698000	11.688015
650.893000	11.513116
651.088000	11.554778
651.283000	11.746628
651.478000	11.289527
651.673000	11.380564
651.868000	11.210880
652.063000	11.537434
652.258000	11.649191
652.453000	11.703822
652.648000	11.278742
652.844000	11.124026
653.039000	11.074107
653.234000	10.742603
653.429000	10.555256
653.624000	10.775302
653.819000	10.971316
654.014000	10.719196
654.209000	10.505384
654.404000	10.731883
654.599000	10.434659
654.794000	10.373471
654.989000	10.733457
655.184000	10.724354
655.380000	10.286584
655.575000	10.183712
655.770000	10.274436
655.965000	10.311741
656.160000	10.221584
656.355000	10.358555
656.550000	10.368565
656.745000	10.393033
656.940000	10.314260
657.135000	10.198292
657.330000	10.088948
657.525000	9.912684
657.720000	10.126976
657.915000	10.205052
658.111000	9.937767
658.306000	10.072613
658.501000	9.858853
658.696000	9.618110
658.891000	9.688363
659.086000	9.530952
659.281000	9.695882
659.476000	9.582065
659.671000	9.000546
659.866000	9.352150
660.061000	9.565418
660.256000	9.618262
660.451000	9.551838
660.646000	9.255350
660.842000	9.314660
661.037000	8.973257
661.232000	9.065831
661.427000	9.275439
661.622000	9.057582
661.817000	8.846849
662.012000	9.211147
662.207000	8.906257
662.402000	8.799411
662.597000	9.073065
662.792000	8.605737
662.987000	8.460654
663.182000	8.661474
663.378000	8.762193
663.573000	8.327103
663.768000	8.421512
663.963000	8.538049
664.158000	8.427491
664.353000	9.013780
664.548000	9.221405
664.743000	8.728982
664.938000	8.229774
665.133000	8.125768
665.328000	8.552091
665.523000	8.514717
665.718000	8.294598
665.913000	8.189559
666.109000	8.171643
666.304000	8.277651
666.499000	8.186452
666.694000	8.445701
666.889000	8.648943
667.084000	8.149907
667.279000	7.953946
667.474000	7.981180
667.669000	7.983788
667.864000	7.865652
668.059000	7.854828
668.254000	7.979029
668.449000	7.846243
668.644000	7.578690
668.840000	7.792838
669.035000	7.625346
669.230000	7.237729
669.425000	7.523091
669.620000	7.430585
669.815000	7.383660
670.010000	7.307685
670.205000	7.466019
670.400000	7.342189
670.595000	7.489251
670.790000	7.314287
670.985000	7.238598
671.180000	7.441309
671.376000	7.044307
671.571000	6.971560
671.766000	6.978390
671.961000	6.948404
672.156000	6.952386
672.351000	7.150127
672.546000	6.992050
672.741000	6.906740
672.936000	6.901760
673.131000	7.628378
673.326000	7.141902
673.521000	6.672862
673.716000	6.719764
673.911000	6.559763
674.107000	7.048541
674.302000	7.213922
674.497000	6.914980
674.692000	6.446973
674.887000	6.440485
675.082000	6.597551
675.277000	6.816217
675.472000	6.596414
675.667000	6.348791
675.862000	6.347250
676.057000	6.518745
676.252000	6.345778
676.447000	6.159716
676.643000	6.413680
676.838000	6.618050
677.033000	6.256856
677.228000	6.557145
677.423000	6.532158
677.618000	6.143262
677.813000	5.960683
678.008000	6.212792
678.203000	6.258239
678.398000	5.977614
678.593000	6.111103
678.788000	6.287233
678.983000	5.942937
679.178000	5.960560
679.374000	5.715055
679.569000	5.810652
679.764000	5.690314
679.959000	5.600532
680.154000	5.532705
680.349000	5.359099
680.544000	5.490136
680.739000	5.581934
680.934000	5.518345
681.129000	5.509002
681.324000	5.530688
681.519000	5.712457
681.714000	5.465403
681.909000	5.284624
682.105000	5.050041
682.300000	5.535445
682.495000	5.817933
682.690000	5.715775
682.885000	5.484352
683.080000	5.429078
683.275000	5.371348
683.470000	5.574586
683.665000	5.718276
683.860000	6.001576
684.055000	5.609811
684.250000	5.067556
684.445000	5.003797
684.641000	5.572442
684.836000	5.317166
685.031000	5.137250
685.226000	4.955035
685.421000	5.281730
685.616000	4.984348
685.811000	4.878109
686.006000	5.119193
686.201000	5.100287
686.396000	4.711774
686.591000	4.643599
686.786000	4.956823
686.981000	4.910631
687.176000	5.036906
687.372000	4.876084
687.567000	5.128128
687.762000	5.016975
687.957000	4.865435
688.152000	4.577670
688.347000	4.664524
688.542000	4.455491
688.737000	3.986222
688.932000	3.935140
689.127000	4.282965
689.322000	4.643775
689.517000	4.447400
689.712000	4.314750
689.908000	4.382774
690.103000	4.332811
690.298000	4.487695
690.493000	4.499442
690.688000	4.216835
690.883000	4.242052
691.078000	4.661286
691.273000	4.656449
691.468000	4.348822
691.663000	4.284545
691.858000	4.398456
692.053000	4.409049
692.248000	4.424342
692.443000	4.305487
692.639000	4.287409
692.834000	4.368498
693.029000	4.760417
693.224000	4.837478
693.419000	4.285922
693.614000	4.075564
693.809000	3.756070
694.004000	3.664585
694.199000	3.745751
694.394000	4.005656
694.589000	3.630466
694.784000	3.705714
694.979000	3.997592
695.174000	3.847673
695.370000	4.309468
695.565000	4.104575
695.760000	3.809506
695.955000	4.201598
696.150000	4.286177
696.345000	3.734442
696.540000	3.992171
696.740000	3.805304
696.940000	3.819360
697.140000	4.007372
697.340000	3.834460
697.539000	3.932101
697.739000	3.787392
697.939000	3.829427
698.139000	3.399459
698.339000	3.061490
698.539000	3.155848
698.739000	3.158660
698.939000	3.405899
699.138000	3.383017
699.338000	4.081917
699.538000	4.074657
699.738000	3.565904
699.938000	3.431464
700.138000	3.385648
700.338000	3.032984
700.538000	3.392331
700.737000	3.408514
700.937000	2.835074
701.137000	2.810644
701.337000	3.467604
701.537000	3.411426
701.737000	3.244952
701.937000	3.234883
702.137000	3.246659
702.337000	2.932245
702.536000	2.734267
702.736000	2.825075
702.936000	2.811716
703.136000	3.429508
703.336000	3.194369
703.536000	2.979975
703.736000	2.728842
703.936000	2.699673
704.135000	2.686569
704.335000	3.230317
704.535000	2.937794
704.735000	2.603662
704.935000	3.082117
705.135000	3.079329
705.335000	2.827790
705.535000	3.127384
705.735000	3.162561
705.934000	3.071686
706.134000	2.840569
706.334000	2.889074
706.534000	2.839450
706.734000	2.853666
706.934000	2.548543
707.134000	2.555186
707.334000	2.890291
707.533000	2.937666
707.733000	2.839526
707.933000	2.692199
708.133000	3.012906
708.333000	2.992393
708.533000	2.593133
708.733000	2.864573
708.933000	2.782463
709.132000	2.721235
709.332000	2.592337
709.532000	2.391288
709.732000	2.557836
709.932000	2.089152
710.132000	2.039175
710.332000	2.001756
710.532000	2.557461
710.732000	2.759769
710.931000	2.438114
711.131000	2.398595
711.331000	2.394304
711.531000	2.269291
711.731000	2.410569
711.931000	2.531840
712.131000	2.528803
712.331000	2.702281
712.530000	2.606609
712.730000	2.298522
712.930000	2.316272
713.130000	2.293413
713.330000	2.252831
713.530000	2.497692
713.730000	3.196417
713.930000	2.709740
714.129000	2.128458
714.329000	1.929374
714.529000	2.252135
714.729000	2.744109
714.929000	2.456784
715.129000	2.035275
715.329000	2.099805
715.529000	2.202759
715.729000	2.920608
715.928000	2.657304
716.128000	2.123636
716.328000	2.275217
716.528000	2.094427
716.728000	2.246738
716.928000	2.012901
717.128000	2.099819
717.328000	2.156527
717.527000	1.994129
717.727000	1.932546
717.927000	1.919642
718.127000	2.073786
718.327000	1.655902
718.527000	1.489054
718.727000	2.008119
718.927000	1.966939
719.127000	1.646993
719.326000	1.883605
719.526000	2.214189
719.726000	2.000300
719.926000	1.640024
720.126000	1.646742
720.326000	1.911019
720.526000	1.672614
720.726000	1.774755
720.925000	2.216296
721.125000	1.561445
721.325000	1.832246
721.525000	1.830177
721.725000	1.622085
721.925000	1.711512
722.125000	1.718180
722.325000	2.155326
722.524000	1.972006
722.724000	1.535252
722.924000	1.292626
723.124000	1.510813
723.324000	1.906554
723.524000	1.947738
723.724000	1.462453
723.924000	1.712094
724.124000	1.910911
724.323000	2.098644
724.523000	1.872060
724.723000	2.319935
724.923000	2.101944
725.123000	2.044457
725.323000	2.107912
725.523000	1.779037
725.723000	1.644149
725.922000	1.725906
726.122000	1.727847
726.322000	1.558722
726.522000	1.500032
726.722000	2.179961
726.922000	1.817843
727.122000	1.770556
727.322000	2.222395
727.521000	1.864615
727.721000	1.449697
727.921000	1.584502
728.121000	1.584105
728.321000	1.182170
728.521000	1.421965
728.721000	1.661554
728.921000	2.006438
729.121000	2.715396
729.320000	2.011971
729.520000	1.563801
729.720000	1.321421
729.920000	1.437103
730.120000	1.488011
730.320000	1.601036
730.520000	1.403363
730.720000	1.476390
730.919000	1.489832
731.119000	1.664356
731.319000	1.302272
731.519000	1.219509
731.719000	1.447716
731.919000	1.276215
732.119000	0.788258
732.319000	0.811505
732.519000	1.366162
732.718000	1.028046
732.918000	1.001159
733.118000	1.302943
733.318000	1.592880
733.518000	1.383585
733.718000	0.791320
733.918000	0.826755
734.118000	1.029238
734.317000	1.237027
734.517000	0.940858
734.717000	1.191953
734.917000	1.738310
735.117000	1.598802
735.317000	1.393473
735.517000	1.985365
735.717000	2.147579
735.916000	1.366071
736.116000	1.137640
736.316000	1.208966
736.516000	1.501450
736.716000	1.445038
736.916000	0.797940
737.116000	0.888354
737.316000	1.616367
737.516000	1.648461
737.715000	1.410974
737.915000	0.934328
738.115000	0.944549
738.315000	1.054147
738.515000	0.654722
738.715000	0.950615
738.915000	1.551388
739.115000	1.026694
739.314000	0.857489
739.514000	1.536102
739.714000	1.716649
739.914000	1.330379
740.114000	1.133164
740.314000	1.326460
740.514000	1.825196
740.714000	1.020573
740.913000	0.418657
741.113000	0.672989
741.313000	1.075890
741.513000	1.153739
741.713000	1.096821
741.913000	1.154768
742.113000	1.092802
742.313000	0.619973
742.513000	0.884776
742.712000	0.910363
742.912000	0.728785
743.112000	0.852870
743.312000	0.458361
743.512000	0.802798
743.712000	1.142222
743.912000	0.576634
744.112000	0.369834
744.311000	0.209267
744.511000	0.702930
744.711000	1.121929
744.911000	0.814021
745.111000	0.722062
745.311000	1.158145
745.511000	0.739997
745.711000	0.686232
745.911000	0.928628
746.110000	0.601714
746.310000	0.370059
746.510000	0.478786
746.710000	1.023265
746.910000	1.118570
747.110000	0.616125
747.310000	0.191001
747.510000	0.572017
747.709000	0.976865
747.909000	0.907826
748.109000	1.046490
748.309000	0.744910
748.509000	0.481909
748.709000	0.331034
748.909000	0.595998
749.109000	0.832554
749.308000	1.277553
749.508000	0.836457
749.708000	0.593501
749.908000	0.958571
750.108000	0.937018
750.308000	0.238337
750.508000	1.122721
750.708000	0.672876
750.908000	0.272357
751.107000	0.923273
751.307000	1.382449
751.507000	0.868310
751.707000	0.850720
751.907000	0.770173
752.107000	1.004946
752.307000	0.592350
752.507000	0.568877
752.706000	0.285079
752.906000	1.396681
753.106000	0.772851
753.306000	0.094170
753.506000	0.937523
753.706000	0.474766
753.906000	0.922643
754.106000	1.169215
754.305000	0.958949
754.505000	0.893513
754.705000	0.770296
754.905000	0.762884
755.105000	0.943884
755.305000	0.233298
755.505000	0.500627
755.705000	0.897431
755.905000	0.649614
756.104000	0.235170
756.304000	-0.241003
756.504000	-0.606356
756.704000	0.482016
756.904000	0.909374
757.104000	0.733793
757.304000	0.682155
757.504000	0.896965
757.703000	0.440501
757.903000	0.995715
758.103000	1.315064
758.303000	0.867978
758.503000	0.604403
758.703000	0.232732
758.903000	0.188401
759.103000	0.785989
759.303000	0.852441
759.502000	0.783273
759.702000	0.917658
759.902000	0.552324
760.102000	0.472228
760.302000	0.437510
760.502000	0.780099
760.702000	0.763094
760.902000	0.392346
761.101000	0.120228
761.301000	-0.071169
761.501000	0.220876
761.701000	0.056702
761.901000	0.250052
762.101000	0.729650
762.301000	0.453273
762.501000	0.038726
762.700000	0.020378
762.900000	0.122314
763.100000	0.512077
763.300000	0.774980
763.500000	0.533326
763.703000	0.169128
763.905000	0.067162
764.108000	0.600992
764.311000	0.385735
764.513000	0.151856
764.716000	0.406588
764.919000	0.501377
765.121000	-0.177247
765.324000	-0.272343
765.527000	-0.112180
765.729000	0.154006
765.932000	1.154076
766.135000	1.039504
766.337000	0.478114
766.540000	0.422352
766.743000	0.627647
766.945000	0.040351
767.148000	-0.229175
767.351000	-0.084725
767.553000	0.678403
767.756000	0.417923
767.958000	0.040627
768.161000	0.379517
768.364000	-0.182684
768.566000	-0.562884
768.769000	0.060580
768.972000	0.490434
769.174000	0.158750
769.377000	-0.558198
769.580000	-0.569236
769.782000	0.247963
769.985000	-0.037511
770.188000	-1.056754
770.390000	-0.236659
770.593000	1.183806
770.796000	0.816956
770.998000	0.409712
771.201000	-0.057739
771.404000	0.101683
771.606000	-0.178152
771.809000	0.262138
772.012000	0.392962
772.214000	-0.319032
772.417000	-0.680273
772.620000	0.292073
772.822000	0.072576
773.025000	-0.149211
773.228000	-0.068685
773.430000	0.072846
773.633000	0.285855
773.836000	0.174589
774.038000	0.450349
774.241000	0.266877
774.444000	0.012261
774.646000	1.012753
774.849000	0.442033
775.052000	0.124812
775.254000	0.504340
775.457000	0.309293
775.659000	0.227905
775.862000	-0.326537
776.065000	0.125481
776.267000	0.733574
776.470000	0.881740
776.673000	0.043496
776.875000	0.583726
777.078000	0.634650
777.281000	-0.310203
777.483000	0.304925
777.686000	0.692596
777.889000	0.536240
778.091000	0.643181
778.294000	-0.648562
778.497000	-0.439235
778.699000	-0.113577
778.902000	0.012663
779.105000	0.107641
779.307000	0.836996
779.510000	-0.103799
779.713000	0.204153
779.915000	0.002134
780.118000	1.059310
780.321000	1.114068
780.523000	-0.019290
780.726000	-0.448135
780.929000	-0.201481
781.131000	-0.083723
781.334000	-0.762766
781.537000	-0.689274
781.739000	0.272501
781.942000	-0.365793
782.145000	-0.933353
782.347000	-0.857746
782.550000	-0.357261
782.753000	-0.642560
782.955000	-0.534731
783.158000	-0.501562
783.361000	-0.107586
783.563000	-0.151524
783.766000	-0.063849
783.968000	1.567805
784.171000	1.408859
784.374000	-0.019938
784.576000	-0.031006
784.779000	0.488685
784.982000	0.858458
785.184000	0.080498
785.387000	0.797249
785.590000	1.244476
785.792000	0.934650
785.995000	0.744814
786.198000	0.588258
786.400000	0.070165
786.603000	0.058997
786.806000	-0.212639
787.008000	0.024881
787.211000	0.320077
787.414000	-0.453286
787.616000	-0.283517
787.819000	-0.032085
788.022000	-0.961567
788.224000	-0.411810
788.427000	-0.745822
788.630000	-0.228690
788.832000	0.002307
789.035000	-0.493017
789.238000	-1.039083
789.440000	-0.777458
789.643000	0.443673
789.846000	-0.370392
790.048000	0.025687
790.251000	0.305979
790.454000	-0.067600
790.656000	0.645741
790.859000	-0.103183
791.062000	-0.655424
791.264000	0.131446
791.467000	-0.858015
791.669000	-1.650079
791.872000	-0.353491
792.075000	-0.732232
792.277000	-0.530895
792.480000	-0.223997
792.683000	-0.710555
792.885000	-0.877754
793.088000	-0.749663
793.291000	-0.943013
793.493000	-0.884787
793.696000	0.098348
793.899000	0.266994
794.101000	-0.202518
794.304000	-0.335877
794.507000	0.038719
794.709000	0.427095
794.912000	-0.082839
795.115000	-0.620047
795.317000	-0.266010
795.520000	0.223053
795.723000	-0.219030
795.925000	-0.773887
796.128000	-1.055960
796.331000	-0.553176
796.533000	-0.950558
796.736000	-0.308493
796.939000	-0.147134
797.141000	-0.497576
797.344000	0.265293
797.547000	0.353043
797.749000	0.228178
797.952000	-0.161291
798.155000	-0.739314
798.357000	-0.844958
798.560000	-0.824287
798.763000	-0.137240
798.965000	-0.568752
799.168000	-0.455819
799.371000	0.015297
799.573000	-0.509033
799.776000	-1.034962
799.978000	-0.884314
800.181000	-0.229229
800.384000	1.356862
800.586000	0.571428
800.789000	-1.082919
800.992000	-0.927218
801.194000	-0.929266
801.397000	-1.087379
801.600000	-0.804653
801.802000	0.524195
802.005000	0.198834
802.208000	-1.230523
802.410000	-0.180881
802.613000	-0.010532
802.816000	-0.234614
803.018000	-0.962098
803.221000	-0.831491
803.424000	0.480296
803.626000	0.255138
803.829000	-0.130642
804.032000	0.938295
804.234000	1.753082
804.437000	-0.077833
804.640000	-0.399566
804.842000	-0.239213
805.045000	-0.510518
805.248000	-0.443818
805.450000	-0.443385
805.653000	-0.255747
805.856000	-0.418532
806.058000	0.357116
806.261000	-0.680395
806.464000	-0.462256
806.666000	0.016437
806.869000	-0.190242
807.072000	-1.623777
807.274000	-1.942087
807.477000	-0.481315
807.679000	-0.287922
807.882000	-0.815804
808.085000	-0.639723
808.287000	0.240483
808.490000	-0.529517
808.693000	-0.431763
808.895000	-0.179635
809.098000	-0.081437
809.301000	-0.377553
809.503000	-0.803657
809.706000	0.301593
809.909000	1.012731
810.111000	0.672303
810.314000	-0.025697
810.517000	-0.566346
810.719000	-0.598158
810.922000	-0.212685
811.125000	0.562116
811.327000	0.522065
811.530000	-0.214287
811.735000	-0.850073
811.940000	-1.199719
812.146000	-0.797358
812.351000	0.133873
812.556000	-0.201455
812.761000	-0.861097
812.967000	0.194142
813.172000	0.326167
813.377000	-0.026528
813.582000	0.565370
813.788000	0.017883
813.993000	-0.725414
814.198000	0.151772
814.403000	-0.933920
814.609000	-0.176586
814.814000	-0.252544
815.019000	0.573188
815.224000	0.362932
815.429000	-0.661242
815.635000	-0.102981
815.840000	-0.194057
816.045000	-0.377698
816.250000	0.018305
816.456000	-1.219378
816.661000	-1.961796
816.866000	-1.519964
817.071000	-1.411385
817.277000	-2.023962
817.482000	-0.895926
817.687000	-0.244751
817.892000	-0.386342
818.097000	0.190644
818.303000	0.846951
818.508000	1.126025
818.713000	7.608830
818.918000	4.153250
819.124000	0.803896
819.329000	-0.264899
819.534000	-0.408021
819.739000	-0.550399
819.945000	-0.791356
820.150000	-0.715948
820.355000	-0.669304
820.560000	-0.236341
820.766000	-0.140887
820.971000	-0.125597
821.176000	-1.723894
821.381000	-2.362711
821.586000	-1.664459
821.792000	0.198224
821.997000	-0.305745
822.202000	-0.338603
822.407000	-0.927452
822.613000	-1.322104
822.818000	-0.784178
823.023000	-0.374499
823.228000	-0.376918
823.434000	0.416263
823.639000	0.847555
823.844000	-0.312032
824.049000	0.368735
824.255000	0.519900
824.460000	-0.348217
824.665000	-0.717522
824.870000	0.205220
825.075000	0.003369
825.281000	-0.064195
825.486000	0.819088
825.691000	-1.136885
825.896000	-2.281630
826.102000	-0.610860
826.307000	-0.201835
826.512000	-0.374277
826.717000	-0.650977
826.923000	-0.583753
827.128000	0.020770
827.333000	-1.024327
827.538000	-0.066446
827.744000	0.301486
827.949000	-0.941233
828.154000	-0.523464
828.359000	0.301982
828.564000	-0.278794
828.770000	-0.705183
828.975000	0.358719
829.180000	-0.157065
829.385000	-1.423757
829.591000	-1.178912
829.796000	-0.482564
830.001000	-0.483486
830.206000	-1.027937
830.412000	-0.882256
830.617000	-1.174350
830.822000	0.131134
831.027000	-0.359816
831.232000	-1.038463
831.438000	-1.027386
831.643000	-0.474987
831.848000	-0.752984
832.053000	-0.422391
832.259000	-0.144681
832.464000	-1.986582
832.669000	-1.751075
832.874000	-1.785505
833.080000	-1.812119
833.285000	0.285010
833.490000	0.153864
833.695000	-1.148361
833.901000	-0.945024
834.106000	-1.364582
834.311000	-0.683967
834.516000	-0.244922
834.721000	-0.900548
834.927000	0.158440
835.132000	-0.305886
835.337000	1.225367
835.542000	0.393981
835.748000	-1.650732
835.953000	0.472710
836.158000	0.708847
836.363000	0.161212
836.569000	-0.015850
836.774000	-0.869308
836.979000	-1.069079
837.184000	-1.748940
837.390000	-1.652353
837.595000	-0.896421
837.800000	-0.677871
838.005000	-0.439885
838.210000	-0.702506
838.416000	-0.948409
838.621000	-0.890002
838.826000	-0.990994
839.031000	-0.812378
839.237000	-1.270859
839.442000	-2.055575
839.647000	-2.052506
839.852000	-1.152542
840.058000	-1.032330
840.263000	-1.537353
840.468000	-2.331287
840.673000	-1.559909
840.878000	-1.102151
841.084000	-1.255709
841.289000	-0.669432
841.494000	2.230037
841.699000	1.918393
841.905000	0.665314
842.110000	0.883303
842.315000	-1.327775
842.520000	-0.575221
842.726000	-0.942346
842.931000	-1.629496
843.136000	-0.472031
843.341000	-1.522637
843.547000	-0.801122
843.752000	-0.453327
843.957000	-1.160177
844.162000	-1.187760
844.367000	-0.969095
844.573000	-0.128880
844.778000	0.048756
844.983000	0.004443
845.188000	-0.017864
845.394000	-1.843118
845.599000	-1.703734
845.804000	-1.235924
846.009000	-0.336097
846.215000	-1.615266
846.420000	-1.871261
846.625000	-0.798680
846.830000	0.553406
847.036000	-0.730727
847.241000	-1.518419
847.446000	0.719893
847.651000	0.004634
847.856000	-1.491674
848.062000	-2.058894
848.267000	-0.159506
848.472000	-0.607283
848.677000	-1.859983
848.883000	-0.230831
849.088000	0.742333
849.293000	-0.234088
849.498000	-0.854048
849.704000	-0.258368
849.909000	-0.978585
850.114000	-1.674201
850.319000	-0.788491
850.524000	-0.502768
850.730000	-0.384077
850.935000	-0.898152
851.140000	-0.239812
851.345000	0.004893
851.551000	-0.142337
851.756000	-0.167775
851.961000	-1.009330
852.166000	-0.910849
852.372000	-1.012473
852.577000	-1.569801
852.782000	-0.977233
852.987000	0.934268
853.193000	0.357915
853.398000	-0.070596
853.603000	-1.687976
853.808000	-2.548462
854.013000	-1.496059
854.219000	-0.708606
854.424000	2.103358
854.629000	1.748975
854.834000	-1.208188
855.040000	-0.358543
855.245000	-0.020716
855.450000	-2.421433
855.655000	-3.470512
855.861000	-2.866089
856.066000	-2.152550
856.271000	-2.841302
856.476000	-0.074054
856.682000	-0.711533
856.887000	-3.416597
857.092000	-2.068074
857.297000	0.218849
857.502000	0.085573
857.708000	-1.066383
857.913000	0.300608
858.118000	-0.075845
858.323000	-0.700910
858.529000	-0.509951
858.734000	-0.946519
858.939000	-0.949309
859.144000	-1.636805
859.350000	-2.732043
859.555000	-2.218831
859.760000	-0.104920
859.965000	0.667980
860.171000	-1.519156
860.376000	-0.272808
860.581000	-1.976174
860.786000	-4.451052
860.991000	-3.794825
861.197000	-2.442062
861.402000	-0.756163
861.607000	-1.236608
861.812000	-2.432820
862.018000	-2.385226
862.223000	-1.420143
862.428000	-0.826129
862.633000	0.264022
862.839000	-0.456272
863.044000	-1.362789
863.249000	-2.404547
863.454000	-0.488363
863.659000	-0.781421
863.865000	-1.547170
864.070000	-1.698125
864.275000	-2.201250
864.480000	-1.915691
864.686000	-3.525075
864.891000	-2.696493
865.096000	-0.769701
865.301000	-0.322803
865.507000	-0.384832
865.712000	-0.384807
865.917000	-1.415994
866.122000	-0.024271
866.328000	-2.678829
866.533000	-3.012342
866.738000	0.189275
866.943000	0.495599
867.148000	1.267498
867.354000	-1.172025
867.559000	-2.971231
867.764000	-1.302760
867.969000	-0.025060
868.175000	-1.617137
868.380000	-2.186719
868.585000	-3.350226
868.790000	-1.850873
868.996000	-0.817485
869.201000	-2.249209
869.406000	-3.662752
869.611000	-3.092824
869.817000	-2.610659
870.022000	2.184854
870.227000	-0.154150
870.432000	-2.381729
870.637000	-0.736660
870.843000	-1.260899
871.048000	-2.236900
871.253000	-0.286281
871.458000	-1.039765
871.664000	-2.724524
871.869000	-3.270210
872.074000	-2.350489
872.279000	-1.353867
872.485000	-1.596369
872.690000	-1.569749
872.895000	-2.081441
873.100000	-2.218782
873.306000	-2.126625
873.511000	-1.629951
873.716000	0.416925
873.921000	-1.561090
874.126000	-2.178081
874.332000	-1.613456
874.537000	-0.893870
874.742000	-1.098190
874.947000	-0.756041
875.153000	1.442252
875.358000	-0.098247
875.563000	-1.395215
875.768000	-3.618846
875.974000	-3.704411
876.179000	-0.736660
876.384000	-0.135236
876.589000	-1.752454
876.794000	-1.970160
877.000000	-3.015247
877.205000	-4.628540
877.410000	-1.112274
877.615000	-2.768773
877.821000	-4.539160
878.026000	-2.576367
878.231000	-3.157880
878.436000	-3.928468
878.642000	-3.074967
878.847000	-0.838488
879.052000	0.374578
879.257000	-2.326278
879.463000	-3.405210
879.668000	-2.441512
879.873000	-0.365077
880.078000	-2.531922
880.283000	-4.641187
880.489000	-5.390858
880.694000	-3.795269
880.899000	-1.206349
881.104000	-0.297098
881.310000	1.264541
881.515000	-0.030436
881.720000	0.579672
881.925000	2.615564
882.131000	4.264941
882.336000	1.051249
882.541000	-3.147387
882.746000	-3.358637
882.952000	-3.667528
883.157000	-2.579082
883.362000	-2.308252
883.567000	-3.658205
883.772000	-4.129820
883.978000	-2.780126
884.183000	-0.630742
884.388000	-1.385982
884.593000	-4.135720
884.799000	0.528282
885.004000	0.616918
885.209000	-0.803961
885.414000	-0.598881
885.620000	-3.211703
885.825000	-0.730699
886.030000	-0.688301
886.235000	-2.423848
886.440000	-2.111510
886.646000	-4.495610
886.851000	-4.392481
887.056000	-0.454111
887.261000	-0.580717
887.467000	-4.047763
887.672000	-0.969915
887.877000	-1.787247
888.082000	-5.189714
888.288000	-5.855649
888.493000	-8.166126
888.698000	-5.835454
888.903000	-2.551972
889.109000	-4.279127
889.314000	0.052003
889.519000	-2.452105
889.724000	-0.207518
889.929000	-1.246563
890.135000	-2.117914
890.340000	-2.046272
890.545000	-3.618678
890.750000	-4.677876
890.956000	-2.320357
891.161000	-0.254519
891.366000	-2.851634
891.571000	-2.196678
891.777000	-1.624762
891.982000	-0.434795
892.187000	-0.659443
892.392000	1.120164
892.598000	0.590102
892.803000	0.414919
893.008000	-2.333861
893.213000	-2.911868
893.418000	-3.113403
893.624000	-3.765743
893.829000	-5.769359
894.034000	-2.042731
894.239000	0.100806
894.445000	-3.145181
894.650000	-2.793472
894.855000	-2.888961
895.060000	-3.067843
895.266000	-3.457200
895.471000	-5.262855
895.676000	-1.058102
895.881000	0.617859
896.087000	-1.161049
896.292000	-2.299508
896.497000	0.719757
896.702000	-1.122471
896.907000	-3.674916
897.113000	0.957680
897.318000	0.199021
897.523000	0.009502
897.728000	-2.327455
897.934000	-3.080595
898.139000	-3.041418
898.344000	-0.712162
898.549000	-1.877655
898.755000	-2.364931
898.960000	-2.574578
899.165000	-4.819748
899.370000	-1.165936
899.575000	2.121721
899.781000	-2.354311
899.986000	-2.551457
900.191000	-1.427632
900.396000	-3.067017
900.602000	-1.837278
900.807000	-1.448032
901.012000	-1.002006
901.217000	-0.294245
901.423000	-2.871699
901.628000	-4.301678
901.833000	0.418036
902.038000	0.164404
902.244000	-3.268808
902.449000	-2.257318
902.654000	-1.916549
902.859000	-1.860103
903.064000	-0.093973
903.270000	0.272454
903.475000	-4.551374
903.680000	-7.322959
903.885000	-6.325348
904.091000	-4.181989
904.296000	-5.104405
904.501000	-4.482740
904.706000	-4.014176
904.912000	0.607542
905.117000	-1.405380
905.322000	-3.723190
905.527000	-4.197860
905.733000	-4.692878
905.938000	-3.621490
906.143000	-4.444798
906.348000	-6.845353
906.553000	-2.515241
906.759000	0.235656
906.964000	-1.116467
907.169000	-3.617767
907.374000	-6.155700
907.580000	-3.515149
907.785000	-2.649970
907.990000	27.550006
908.195000	18.706927
908.401000	-0.280719
908.606000	-7.985650
908.811000	-9.270127
909.016000	-1.513641
909.221000	0.011771
909.427000	-1.408701
909.632000	-5.123016
909.837000	-5.218843
910.042000	-5.656054
910.248000	-7.320294
910.453000	-2.484322
910.658000	-2.687324
910.863000	-4.094203
911.069000	-5.523940
911.274000	-1.102987
911.479000	0.137163
911.684000	-5.344625
911.890000	-2.371702
912.095000	-2.688731
912.300000	-5.997881
912.506000	-4.861600
912.711000	-5.370818
912.917000	-3.194577
913.123000	-1.592295
913.328000	-2.441961
913.534000	-1.616830
913.740000	7.431812
913.946000	2.256533
914.151000	-4.133603
914.357000	-4.748012
914.563000	-2.628332
914.768000	-6.376166
914.974000	-5.703771
915.180000	-5.012179
915.385000	-4.827699
915.591000	-9.204544
915.797000	-3.713203
916.002000	0.708649
916.208000	-2.752679
916.414000	-4.600891
916.620000	-5.521665
916.825000	-3.430220
917.031000	-3.714212
917.237000	-9.378605
917.442000	-6.267568
917.648000	-6.604536
917.854000	-6.743970
918.059000	-0.275089
918.265000	0.954374
918.471000	-1.729480
918.676000	-5.493568
918.882000	-7.525883
919.088000	-6.502773
919.294000	-11.030932
919.499000	-6.297583
919.705000	-0.513803
919.911000	-1.647121
920.116000	-0.289987
920.322000	-8.184789
920.528000	-6.533554
920.733000	-7.874710
920.939000	-8.377851
921.145000	-8.045813
921.350000	-7.039199
921.556000	-5.099039
921.762000	-5.405125
921.968000	-6.539836
922.173000	-5.778808
922.379000	-7.779913
922.585000	-4.318040
922.790000	-5.800360
922.996000	-7.909638
923.202000	-7.503860
923.407000	-6.037301
923.613000	-5.877024
923.819000	-3.026191
924.024000	-1.999410
924.230000	-0.828481
924.436000	-3.130711
924.642000	6.304850
924.847000	0.887660
925.053000	-6.415764
925.259000	-9.645456
925.464000	-4.275908
925.670000	-5.410595
925.876000	-9.278800
926.081000	-7.904347
926.287000	-3.193540
926.493000	-1.706635
926.698000	-3.346220
926.904000	-1.970115
927.110000	-4.072957
927.316000	-5.003115
927.521000	2.231923
927.727000	-2.228038
927.933000	-3.648018
928.138000	-5.080470
928.344000	-11.253285
928.550000	-5.816733
928.755000	-1.625712
928.961000	-6.837624
929.167000	-6.296315
929.372000	2.068079
929.578000	1.102629
929.784000	-6.822872
929.990000	-8.846783
930.195000	-6.772514
930.401000	-6.219122
930.607000	-2.602591
930.812000	-0.896382
931.018000	-5.912013
931.224000	-12.521431
931.429000	-10.183068
931.635000	-13.381818
931.841000	-12.673441
932.046000	-6.713962
932.252000	-1.989202
932.458000	3.544597
932.664000	-1.489941
932.869000	-6.787401
933.075000	-9.989279
933.281000	-10.021084
933.486000	-0.089457
933.692000	-2.897979
933.898000	-8.452438
934.103000	-1.223395
934.309000	-6.569332
934.515000	-2.680337
934.720000	0.377480
934.926000	0.975405
935.132000	-1.404762
935.338000	-3.826733
935.543000	-11.449593
935.749000	-12.789074
935.955000	-12.229039
936.160000	-11.369041
936.366000	0.403254
936.572000	-1.259302
936.777000	-1.940728
936.983000	2.655051
937.189000	-3.152759
937.394000	-9.237032
937.600000	-1.861379
937.806000	3.967257
938.012000	-7.286944
938.217000	6.006452
938.423000	4.508966
938.629000	-6.974505
938.834000	-13.936056
939.040000	-12.508426
939.246000	-8.163844
939.451000	-12.050844
939.657000	-3.939078
939.863000	-6.528769
940.068000	-1.775956
940.274000	-9.364794
940.480000	-5.650632
940.686000	-2.314048
940.891000	-6.170575
941.097000	22.571744
941.303000	9.681656
941.508000	-3.309746
941.714000	-2.847784
941.920000	-16.176028
942.125000	-4.203042
942.331000	-0.785602
942.537000	0.359795
942.742000	0.693860
942.948000	-9.715449
943.154000	-11.023822
943.360000	-23.158361
943.565000	-9.572052
943.771000	5.137784
943.977000	4.426825
944.182000	-12.785444
944.388000	-16.229056
944.594000	-1.510705
944.799000	9.225542
945.005000	-0.818443
945.211000	4.138559
945.416000	0.902997
945.622000	-11.977672
945.828000	-8.411482
946.034000	0.751168
946.239000	1.834450
946.445000	-4.391410
946.651000	-17.060121
946.856000	-18.517168
947.062000	-4.397500
947.268000	0.749960
947.473000	-14.307126
947.679000	-21.248634
947.885000	-7.382307
948.090000	-1.602042
948.296000	11.885319
948.502000	0.401420
948.708000	-6.957348
948.913000	-9.461143
949.119000	-4.989481
949.325000	-11.699188
949.530000	-23.078162
949.736000	-27.643030
949.942000	-15.136735
950.147000	-13.382977
950.353000	-13.269360
950.559000	-9.764320
950.764000	14.409844
950.970000	4.172017
951.176000	-12.128978
951.382000	-12.047007
951.587000	-3.088105
951.793000	0.826315
951.999000	4.305568
952.204000	-7.990292
952.410000	-24.611294
952.616000	-6.701935
952.821000	-0.930404
953.027000	-14.523998
953.233000	-18.935914
953.438000	-19.072340
953.644000	-1.353207
953.850000	-2.748049
954.056000	-9.619323
954.261000	-9.881595
954.467000	2.070255
954.673000	10.370126
954.878000	-2.194965
955.084000	-3.215120
955.290000	-18.551261
955.495000	-22.088890
955.701000	-17.329668
955.907000	0.665928
956.112000	-2.663986
956.318000	10.354917
956.524000	7.970414
956.730000	-11.613842
956.935000	-9.735823
957.141000	-15.159008
957.347000	-7.669679
957.552000	-9.159750
957.758000	-20.088194
957.964000	-33.056079
958.169000	1.565167
958.375000	3.750593
958.581000	-9.597580
958.786000	-22.744018
958.992000	-29.244567
959.198000	-10.707915
959.404000	-4.196531
959.609000	-10.120007
959.815000	-13.925214
960.021000	4.591558
960.226000	-6.145701
960.432000	-26.831857
960.638000	-18.645827
960.843000	-10.645889
961.049000	-8.494458
961.255000	2.633919
961.460000	-14.401363
961.666000	-31.704273
961.872000	-19.011794
962.078000	-16.533341
962.283000	-25.240135
962.489000	-27.499362
962.695000	-13.693085
962.900000	-8.716019
963.106000	-11.025211
963.312000	-13.661428
963.517000	-15.010964
963.723000	-20.014764
963.929000	0.050558
964.134000	7.367088
964.340000	-14.235680
964.546000	-16.932972
964.752000	-19.872608
964.957000	-27.090584
965.163000	-1.788830
965.369000	-6.343088
965.574000	-5.062272
965.780000	-5.335991
966.000000	-11.004334
966.220000	-9.984850
966.440000	-14.129132
966.661000	-1.866007
966.881000	-17.286088
967.101000	-35.419029
967.321000	-38.269811
967.541000	-15.282350
967.761000	-22.511855
967.981000	-13.193407
968.202000	-13.793259
968.422000	0.347665
968.642000	-1.964040
968.862000	-4.364015
969.082000	-16.871318
969.302000	-4.539170
969.522000	-11.394751
969.743000	1.526438
969.963000	-14.040857
970.183000	-24.726713
970.403000	-26.742166
970.623000	-24.647350
970.843000	-1.177800
971.063000	2.266063
971.284000	-16.085466
971.504000	-25.590560
971.724000	-8.620374
971.944000	-21.019508
972.164000	-29.931654
972.384000	-24.535841
972.604000	-41.959767
972.825000	-52.048288
973.045000	-29.407905
973.265000	27.791174
973.485000	13.676530
973.705000	-8.484568
973.925000	-8.960216
974.145000	-48.314160
974.365000	-13.089639
974.586000	-4.221819
974.806000	-30.935034
975.026000	-3.879482
975.246000	-12.724073
975.466000	-23.167689
975.686000	-7.078788
975.906000	-22.832015
976.127000	-44.817445
976.347000	-39.100520
976.567000	-11.876721
976.787000	-4.795322
977.007000	-23.585351
977.227000	-26.713606
977.447000	-13.824291
977.668000	-35.888792
977.888000	-29.952159
978.108000	-32.472089
978.328000	-23.314720
978.548000	6.833529
978.768000	19.911434
978.988000	5.580856
979.209000	-21.380312
979.429000	-26.159579
979.649000	-11.089927
979.869000	-28.310335
980.089000	-44.109209
980.309000	-42.135396
980.529000	-51.325257
980.750000	-35.719164
980.970000	-46.607906
981.190000	-29.389412
981.410000	-32.064970
981.630000	-39.656738
981.850000	-20.969463
982.070000	-15.145519
982.291000	-55.019529
982.511000	-53.251086
982.731000	-19.278713
982.951000	-36.422814
983.171000	-31.864604
983.391000	-17.362882
983.611000	11.401518
983.832000	-19.482747
984.052000	-60.474935
984.272000	-32.976290
984.492000	-16.209106
984.712000	-32.699494
984.932000	-61.220540
985.152000	-60.846903
985.373000	-38.930591
985.593000	-12.104340
985.813000	-19.714312
986.033000	-32.359229
986.253000	4.030744
986.473000	5.429844
986.693000	-22.363462
986.914000	-33.158368
987.134000	19.618460
987.354000	-20.892444
987.574000	192.719167
987.794000	113.057184
988.014000	-47.904203
988.234000	-29.940749
988.455000	-10.410776
988.675000	-5.480564
988.895000	-2.449156
989.115000	-27.272281
989.335000	-22.712974
989.555000	12.159340
989.775000	-39.116859
989.995000	-41.415926
990.216000	-17.723221
990.436000	-21.925518
990.656000	7.684045
990.876000	-28.728532
991.096000	-8.079162
991.316000	28.624307
991.536000	-16.986558
991.757000	-26.467430
991.977000	-69.300666
992.197000	-12.175370
992.417000	-15.492414
992.637000	-67.551388
992.857000	-92.047176
993.077000	-73.749818
993.298000	-23.758616
993.518000	-34.098512
993.738000	-98.297515
993.958000	-38.962021
994.178000	-43.976653
994.398000	-51.479400
994.618000	-81.445204
994.839000	-130.742533
995.059000	-25.295761
995.279000	49.229508
995.499000	-3.293162
995.719000	-3.172892
995.939000	-23.261761
996.159000	-15.012701
996.380000	-16.282175
996.600000	-73.604596
996.820000	-34.739722
997.040000	12.021990
997.260000	-50.458031
997.480000	-33.940620
997.700000	-112.321113
997.921000	-68.931113
998.141000	30.512797
998.361000	7.611053
998.581000	-36.656250
998.801000	-92.420478
999.021000	-73.672775
999.241000	-27.424709
999.462000	-72.824358
999.682000	-109.550773
999.902000	-46.770393
1000.122000	-63.632677
1000.342000	-128.453369
1000.562000	-76.491191
1000.782000	-87.267043
1001.003000	-1037.350952
